condition_phase,condition_phase_elapsed_ms,condition_elapsed_ms,is_stimulation_on,t_ms,L_q0,L_q1,L_q2,L_q3,L_heel1,L_mid1,L_fore1,L_heel2,L_fore3,L_mid2,L_fore4,L_fore2,L_cadence,L_speed,L_steps,L_zupt,L_gyroNorm,L_accH,L_gyro_x,L_gyro_y,L_gyro_z,L_acc_x,L_acc_y,L_acc_z,L_nav_ax,L_nav_ay,L_nav_az,L_stepVel,L_stepVelj,L_stepDispRaw,L_stepDispZUPT,L_gaitEvent,L_motorMode,L_motorActive,L_motorAlignment,L_motorRegionMask,L_motorAmplitude,L_motorIntervalMs,L_motorDurationMs,L_motorPhaseMs,L_motorCycleMs
baseline,3759,3759,0,63678.829,0.990,0.060,-0.037,0.126,1105,0,393,1735,3784,742,429,623,0,0.000,1,0,1.272,0.004,0.540,-0.340,1.100,-0.057,-0.129,0.995,0.004,0.000,0.000,0.000,0.000,0.000,0.000,0,0,0,0,7,255,0,250,0,0
baseline,3759,3759,0,63683.829,0.990,0.060,-0.037,0.126,1103,0,393,1737,3785,741,431,623,0,0.000,1,0,1.213,0.007,0.480,-0.400,1.040,-0.059,-0.128,0.994,0.004,0.006,0.008,0.000,0.000,0.000,0.000,0,0,0,0,7,255,0,250,0,0
baseline,3759,3759,0,63688.829,0.990,0.060,-0.037,0.126,1111,0,392,1735,3789,741,427,623,0,0.000,1,0,1.238,0.008,0.540,-0.400,1.040,-0.059,-0.127,0.994,-0.002,0.008,0.008,0.000,0.000,0.000,0.000,0,0,0,0,7,255,0,250,0,0
baseline,3759,3759,0,63693.829,0.990,0.060,-0.037,0.126,1103,0,391,1735,3789,743,427,622,0,0.000,1,0,1.075,0.008,0.480,-0.280,0.920,-0.058,-0.128,0.994,-0.002,0.008,0.006,0.000,0.000,0.000,0.000,0,0,0,0,7,255,0,250,0,0
baseline,3759,3759,0,63698.829,0.990,0.060,-0.037,0.126,1113,0,389,1724,3787,745,428,621,0,0.000,1,0,1.092,0.006,0.480,-0.340,0.920,-0.057,-0.128,0.994,0.000,0.006,0.006,0.000,0.000,0.000,0.000,0,0,0,0,7,255,0,250,0,0
baseline,3759,3759,0,63703.830,0.990,0.060,-0.037,0.126,1107,0,380,1725,3773,739,429,629,0,0.000,1,0,0.852,0.010,0.360,-0.280,0.720,-0.058,-0.127,0.995,0.008,0.006,0.006,0.000,0.000,0.000,0.000,0,0,0,0,7,255,0,250,0,0
baseline,3775,3775,0,63708.829,0.990,0.060,-0.037,0.126,1103,0,389,1731,3801,732,424,619,0,0.000,1,0,0.758,0.018,0.300,-0.220,0.660,-0.059,-0.127,0.994,0.008,0.016,0.006,0.000,0.000,0.000,0.000,0,0,0,0,7,255,0,250,0,0
baseline,3775,3775,0,63713.829,0.990,0.060,-0.037,0.126,1105,0,381,1723,3783,740,431,627,0,0.000,1,0,0.683,0.017,0.240,-0.220,0.600,-0.058,-0.128,0.995,0.006,0.016,0.010,0.000,0.000,0.000,0.000,0,0,0,0,7,255,0,250,0,0
baseline,3775,3775,0,63718.829,0.990,0.060,-0.037,0.126,1107,0,387,1723,3789,743,427,629,0,0.000,1,0,0.647,0.006,0.180,-0.160,0.600,-0.059,-0.129,0.995,-0.002,0.006,0.010,0.000,0.000,0.000,0.000,0,0,0,0,7,255,0,250,0,0
baseline,3775,3775,0,63723.829,0.990,0.060,-0.037,0.126,1094,0,377,1709,3775,733,421,615,0,0.000,1,0,0.522,0.006,0.180,-0.100,0.480,-0.059,-0.127,0.994,-0.002,0.006,0.010,0.000,0.000,0.000,0.000,0,0,0,0,7,255,0,250,0,0
baseline,3775,3775,0,63728.829,0.990,0.060,-0.037,0.126,1105,0,389,1731,3793,736,423,623,0,0.000,1,0,0.510,0.016,0.240,-0.160,0.420,-0.058,-0.126,0.993,-0.002,0.016,0.000,0.000,0.000,0.000,0.000,0,0,0,0,7,255,0,250,0,0
baseline,3775,3775,0,63733.829,0.990,0.060,-0.037,0.126,1099,0,375,1711,3787,741,422,619,0,0.000,1,0,0.465,0.018,0.120,-0.160,0.420,-0.058,-0.127,0.995,0.008,0.016,0.000,0.000,0.000,0.000,0.000,0,0,0,0,7,255,0,250,0,0
baseline,3775,3775,0,63738.829,0.990,0.060,-0.037,0.126,1101,0,379,1721,3773,740,431,628,0,0.000,1,0,0.374,0.020,-0.020,-0.100,0.360,-0.058,-0.126,0.995,0.008,0.018,0.014,0.000,0.000,0.000,0.000,0,0,0,0,7,255,0,250,0,0
baseline,3791,3791,0,63743.829,0.990,0.060,-0.037,0.126,1088,0,376,1720,3799,735,424,615,0,0.000,1,0,0.267,0.021,0.060,-0.100,0.240,-0.060,-0.125,0.994,0.006,0.020,0.014,0.000,0.000,0.000,0.000,0,0,0,0,7,255,0,250,0,0
baseline,3791,3791,0,63748.829,0.990,0.060,-0.037,0.126,1106,0,387,1722,3784,747,428,629,0,0.000,1,0,0.028,0.021,-0.020,0.020,0.000,-0.057,-0.126,0.996,0.006,0.020,0.014,0.000,0.000,0.000,0.000,0,0,0,0,7,255,0,250,0,0
baseline,3808,3808,0,63753.829,0.990,0.060,-0.037,0.126,1099,0,377,1710,3799,733,422,620,0,0.000,1,0,0.185,0.024,-0.140,0.020,-0.120,-0.057,-0.127,0.996,0.016,0.018,0.018,0.000,0.000,0.000,0.000,0,0,0,0,7,255,0,250,0,0
baseline,3808,3808,0,63758.829,0.990,0.060,-0.037,0.126,1103,0,379,1721,3786,741,435,626,0,0.000,1,0,0.224,0.019,-0.200,0.080,-0.060,-0.058,-0.127,0.995,0.016,0.010,0.018,0.000,0.000,0.000,0.000,0,0,0,0,7,255,0,250,0,0
baseline,3808,3808,0,63763.829,0.990,0.060,-0.037,0.126,1103,0,375,1737,3781,741,427,627,0,0.000,1,0,0.354,0.013,-0.320,0.140,-0.060,-0.059,-0.127,0.995,0.008,0.010,0.010,0.000,0.000,0.000,0.000,0,0,0,0,7,255,0,250,0,0
baseline,3808,3808,0,63768.829,0.990,0.060,-0.037,0.126,1111,0,389,1725,3787,745,427,622,0,0.000,1,0,0.408,0.012,-0.320,0.080,-0.240,-0.059,-0.127,0.995,0.000,0.012,0.010,0.000,0.000,0.000,0.000,0,0,0,0,7,255,0,250,0,0
baseline,3823,3823,0,63773.829,0.990,0.060,-0.037,0.126,1093,0,379,1715,3789,740,425,615,0,0.000,1,0,0.643,0.012,-0.380,0.140,-0.500,-0.059,-0.127,0.995,-0.002,0.012,0.010,0.000,0.000,0.000,0.000,0,0,0,0,7,255,0,250,0,0
baseline,3823,3823,0,63778.829,0.990,0.060,-0.037,0.126,1107,0,383,1737,3800,748,435,623,0,0.000,1,0,0.754,0.016,-0.380,0.200,-0.620,-0.058,-0.126,0.995,0.000,0.016,0.010,0.000,0.000,0.000,0.000,0,0,0,0,7,255,0,250,0,0
baseline,3855,3855,0,63783.829,0.990,0.060,-0.037,0.126,1107,0,380,1711,3759,743,427,621,0,0.000,1,0,0.740,0.013,-0.440,0.200,-0.560,-0.058,-0.127,0.994,0.004,0.012,0.008,0.000,0.000,0.000,0.000,0,0,0,0,7,255,0,250,0,0
baseline,3873,3873,0,63788.830,0.990,0.060,-0.037,0.126,1101,0,378,1725,3799,742,428,622,0,0.000,1,0,0.867,0.013,-0.500,0.200,-0.680,-0.059,-0.127,0.994,0.004,0.012,0.000,0.000,0.000,0.000,0.000,0,0,0,0,7,255,0,250,0,0
baseline,3873,3873,0,63793.829,0.990,0.060,-0.037,0.126,1099,0,387,1716,3775,743,427,622,0,0.000,1,0,0.930,0.011,-0.500,0.260,-0.740,-0.059,-0.128,0.994,-0.004,0.010,0.000,0.000,0.000,0.000,0.000,0,0,0,0,7,255,0,250,0,0
baseline,3873,3873,0,63798.829,0.990,0.060,-0.037,0.126,1103,0,378,1715,3785,736,426,619,0,0.000,1,0,1.045,0.007,-0.500,0.320,-0.860,-0.059,-0.128,0.995,-0.004,0.006,0.000,0.000,0.000,0.000,0.000,0,0,0,0,7,255,0,250,0,0
baseline,3873,3873,0,63803.829,0.990,0.060,-0.037,0.126,1107,0,379,1717,3782,744,429,617,0,0.000,1,0,1.108,0.007,-0.560,0.260,-0.920,-0.061,-0.128,0.994,-0.004,0.006,0.006,0.000,0.000,0.000,0.000,0,0,0,0,7,255,0,250,0,0
baseline,3873,3873,0,63808.829,0.990,0.060,-0.037,0.126,1097,0,380,1717,3785,745,425,623,0,0.000,1,0,1.393,0.004,-0.620,0.260,-1.220,-0.057,-0.129,0.993,-0.004,0.002,0.006,0.000,0.000,0.000,0.000,0,0,0,0,7,255,0,250,0,0
baseline,3873,3873,0,63813.829,0.990,0.060,-0.037,0.126,1101,0,378,1725,3783,743,427,619,0,0.000,1,0,1.589,0.010,-0.500,0.380,-1.460,-0.053,-0.130,0.991,0.006,-0.008,-0.004,0.000,0.000,0.000,0.000,0,0,0,0,7,255,0,250,0,0
baseline,3873,3873,0,63818.829,0.990,0.060,-0.037,0.126,1099,0,380,1733,3785,742,425,621,0,0.000,1,0,0.698,0.018,-0.020,0.320,-0.620,-0.057,-0.127,0.995,0.016,-0.008,-0.004,0.000,0.000,0.000,0.000,0,0,0,0,7,255,0,250,0,0
baseline,3873,3873,0,63823.829,0.990,0.060,-0.037,0.126,1107,0,378,1712,3795,743,429,618,0,0.000,1,0,0.774,0.017,-0.740,0.140,0.180,-0.067,-0.126,1.000,0.016,0.006,0.008,0.000,0.000,0.000,0.000,0,0,0,0,7,255,0,250,0,0
baseline,3873,3873,0,63828.829,0.990,0.060,-0.037,0.126,1107,0,381,1725,3780,744,425,620,0,0.000,1,0,3.523,0.010,-1.840,0.620,-2.940,-0.057,-0.130,0.990,0.008,0.006,0.008,0.000,0.000,0.000,0.000,0,0,0,0,7,255,0,250,0,0
baseline,3887,3887,0,63833.829,0.990,0.060,-0.037,0.126,1105,0,389,1720,3785,747,429,619,0,0.000,1,0,1.730,0.008,1.020,0.560,-1.280,-0.055,-0.126,0.982,0.008,0.000,-0.036,0.000,0.000,0.000,0.000,0,0,0,0,7,255,0,250,0,0
baseline,3887,3887,0,63838.829,0.990,0.060,-0.037,0.126,1101,0,383,1718,3773,741,429,621,0,0.000,1,0,0.822,0.024,-0.620,-0.340,0.420,-0.054,-0.128,1.010,0.024,0.000,-0.036,0.000,0.000,0.000,0.000,0,0,0,0,7,255,0,250,0,0
baseline,3887,3887,0,63843.829,0.989,0.060,-0.037,0.126,1099,0,384,1721,3773,749,430,616,0,0.000,1,0,3.427,0.024,-1.540,1.480,-2.680,-0.064,-0.148,0.987,0.024,0.000,-0.034,0.000,0.000,0.000,0.000,0,0,0,0,7,255,0,250,0,0
baseline,3887,3887,0,63848.829,0.990,0.060,-0.037,0.126,1107,0,393,1725,3783,739,433,619,0,0.000,1,0,1.630,0.053,0.060,-1.080,1.220,-0.058,-0.087,0.990,0.052,0.008,-0.034,0.000,0.000,0.000,0.000,0,0,0,0,7,255,0,250,0,0
baseline,3904,3904,0,63853.829,0.989,0.060,-0.037,0.126,1103,0,391,1735,3787,736,431,629,0,0.000,1,0,4.651,0.207,-0.620,2.220,-4.040,-0.061,-0.177,1.000,-0.106,-0.178,-0.034,0.000,0.000,0.000,0.000,0,0,0,0,7,255,0,250,0,0
baseline,3904,3904,0,63858.829,0.989,0.060,-0.037,0.126,1097,0,394,1722,3785,745,431,623,0,0.000,1,0,2.263,0.349,-0.920,-1.820,0.980,-0.047,-0.090,0.993,0.102,0.334,-0.060,0.000,0.000,0.000,0.000,0,0,0,0,7,255,0,250,0,0
baseline,3921,3921,0,63863.829,0.989,0.060,-0.037,0.127,1100,0,391,1717,3784,745,429,621,0,0.000,1,0,3.434,0.322,-0.020,2.820,-1.960,-0.071,-0.162,0.983,-0.136,-0.292,-0.056,0.000,0.000,0.000,0.000,0,0,0,0,7,255,0,250,0,0
baseline,3921,3921,0,63868.829,0.989,0.060,-0.037,0.127,1105,0,393,1723,3787,736,428,621,0,0.000,1,0,2.539,0.274,-0.920,-2.180,-0.920,-0.040,-0.107,1.019,0.198,0.190,-0.056,0.000,0.000,0.000,0.000,0,0,0,0,7,255,0,250,0,0
baseline,3921,3921,0,63873.829,0.989,0.060,-0.037,0.127,1102,0,389,1720,3789,744,433,619,0,0.000,1,0,2.063,0.210,-0.860,1.860,0.240,-0.078,-0.130,0.954,-0.210,0.000,-0.056,0.000,0.000,0.000,0.000,0,0,0,0,7,255,0,250,0,0
baseline,3921,3921,0,63878.829,0.989,0.060,-0.037,0.127,1099,0,391,1727,3781,740,427,619,0,0.000,1,0,3.008,0.040,0.420,0.760,-2.880,-0.052,-0.150,1.031,0.040,0.000,0.204,0.000,0.000,0.000,0.000,0,0,0,0,7,255,0,250,0,0
baseline,3951,3951,0,63883.829,0.989,0.060,-0.037,0.127,1107,0,393,1721,3787,739,429,621,0,0.000,1,0,2.385,0.040,-0.920,-2.180,-0.300,-0.045,-0.107,0.981,0.040,0.000,-0.154,0.000,0.000,0.000,0.000,0,0,0,0,7,255,0,250,0,0
baseline,3951,3951,0,63888.829,0.989,0.060,-0.037,0.127,1097,0,391,1724,3788,741,429,620,0,0.000,1,0,3.272,0.040,-1.300,3.000,0.120,-0.067,-0.129,0.971,0.040,0.000,-0.154,0.000,0.000,0.000,0.000,0,0,0,0,7,255,0,250,0,0
baseline,3951,3951,0,63893.829,0.989,0.060,-0.037,0.127,1091,0,392,1721,3783,736,426,621,0,0.000,1,0,1.589,0.104,0.180,-0.600,-1.460,-0.067,-0.149,1.020,-0.104,0.000,-0.154,0.000,0.000,0.000,0.000,0,0,0,0,7,255,0,250,0,0
baseline,3951,3951,0,63898.829,0.989,0.060,-0.037,0.127,1093,0,389,1716,3783,741,427,619,0,0.000,1,0,1.869,0.110,0.180,-0.840,-1.660,-0.058,-0.133,0.992,-0.104,-0.036,-0.016,0.000,0.000,0.000,0.000,0,0,0,0,7,255,0,250,0,0
baseline,3951,3951,0,63903.829,0.989,0.060,-0.037,0.127,1097,0,392,1722,3783,732,427,620,0,0.000,1,0,1.341,0.036,-0.500,1.000,-0.740,-0.050,-0.122,0.983,-0.004,-0.036,-0.016,0.000,0.000,0.000,0.000,0,0,0,0,7,255,0,250,0,0
baseline,3951,3951,0,63908.829,0.989,0.060,-0.037,0.127,1098,0,389,1719,3771,736,435,621,0,0.000,1,0,1.121,0.077,-0.980,0.320,-0.440,-0.052,-0.125,0.993,0.072,0.028,-0.016,0.000,0.000,0.000,0.000,0,0,0,0,7,255,0,250,0,0
baseline,3967,3967,0,63913.829,0.989,0.060,-0.037,0.127,1083,0,392,1723,3789,739,427,619,0,0.000,1,0,0.715,0.077,-0.500,0.260,-0.440,-0.057,-0.128,0.990,0.072,0.028,-0.038,0.000,0.000,0.000,0.000,0,0,0,0,7,255,0,250,0,0
baseline,3967,3967,0,63918.829,0.989,0.060,-0.037,0.127,1076,0,383,1709,3770,731,422,615,0,0.000,1,0,0.584,0.014,0.060,0.380,-0.440,-0.060,-0.132,0.992,0.014,0.000,-0.014,0.000,0.000,0.000,0.000,0,0,0,0,7,255,0,250,0,0
baseline,3967,3967,0,63923.829,0.989,0.060,-0.037,0.127,1095,0,380,1719,3771,736,423,616,0,0.000,1,0,0.735,0.030,0.240,0.140,-0.680,-0.061,-0.134,0.996,-0.020,-0.022,-0.014,0.000,0.000,0.000,0.000,0,0,0,0,7,255,0,250,0,0
baseline,3967,3967,0,63928.829,0.989,0.060,-0.037,0.127,1085,0,380,1718,3781,739,429,615,0,0.000,1,0,0.802,0.037,0.060,0.020,-0.800,-0.061,-0.132,0.996,-0.030,-0.022,0.024,0.000,0.000,0.000,0.000,0,0,0,0,7,255,0,250,0,0
baseline,3984,3984,0,63933.829,0.989,0.060,-0.037,0.127,1084,0,380,1717,3785,735,427,615,0,0.000,1,0,0.699,0.042,-0.140,0.080,-0.680,-0.059,-0.133,0.992,-0.030,-0.030,0.024,0.000,0.000,0.000,0.000,0,0,0,0,7,255,0,250,0,0
baseline,3984,3984,0,63938.829,0.989,0.060,-0.037,0.127,1086,0,383,1725,3787,735,427,617,0,0.000,1,0,0.611,0.033,-0.200,0.140,-0.560,-0.059,-0.132,0.991,-0.018,-0.028,-0.008,0.000,0.000,0.000,0.000,0,0,0,0,7,255,0,250,0,0
baseline,3999,3999,0,63943.829,0.989,0.060,-0.037,0.127,1085,0,394,1716,3782,733,424,617,0,0.000,1,0,0.670,0.030,-0.260,0.260,-0.560,-0.058,-0.129,0.991,-0.012,-0.028,-0.022,0.000,0.000,0.000,0.000,0,0,0,0,7,255,0,250,0,0
baseline,3999,3999,0,63948.829,0.989,0.060,-0.037,0.127,1097,0,401,1727,3765,734,424,625,0,0.000,1,0,0.598,0.014,-0.260,0.200,-0.500,-0.056,-0.130,0.993,0.000,-0.014,-0.022,0.000,0.000,0.000,0.000,0,0,0,0,7,255,0,250,0,0
baseline,3999,3999,0,63953.829,0.989,0.060,-0.037,0.127,1091,0,397,1723,3780,732,423,619,0,0.000,1,0,0.363,0.023,-0.260,0.080,-0.240,-0.056,-0.131,0.992,0.018,-0.014,-0.012,0.000,0.000,0.000,0.000,0,0,0,0,7,255,0,250,0,0
baseline,3999,3999,0,63958.829,0.989,0.060,-0.037,0.127,1085,0,397,1719,3776,728,427,619,0,0.000,1,0,0.279,0.024,-0.260,0.080,-0.060,-0.058,-0.131,0.991,0.018,-0.016,-0.012,0.000,0.000,0.000,0.000,0,0,0,0,7,255,0,250,0,0
baseline,4015,4015,0,63963.829,0.989,0.060,-0.037,0.127,1093,0,383,1719,3774,733,429,612,0,0.000,1,0,0.198,0.016,-0.140,0.140,0.000,-0.058,-0.131,0.990,-0.004,-0.016,-0.024,0.000,0.000,0.000,0.000,0,0,0,0,7,255,0,250,0,0
baseline,4015,4015,0,63968.829,0.989,0.060,-0.037,0.127,1091,0,395,1723,3782,737,429,615,0,0.000,1,0,0.165,0.016,-0.080,0.080,-0.120,-0.056,-0.129,0.994,-0.004,-0.016,-0.024,0.000,0.000,0.000,0.000,0,0,0,0,7,255,0,250,0,0
baseline,4063,4063,0,63973.829,0.989,0.060,-0.037,0.127,1079,0,399,1725,3773,732,425,616,0,0.000,1,0,0.128,0.026,-0.020,-0.040,-0.120,-0.055,-0.128,0.993,0.026,0.000,-0.010,0.000,0.000,0.000,0.000,0,0,0,0,7,255,0,250,0,0
baseline,4063,4063,0,63978.829,0.989,0.060,-0.037,0.127,1091,0,392,1723,3781,737,427,608,0,0.000,1,0,0.122,0.026,0.120,0.020,0.000,-0.055,-0.133,0.992,0.026,0.000,-0.010,0.000,0.000,0.000,0.000,0,0,0,0,7,255,0,250,0,0
baseline,4063,4063,0,63983.829,0.989,0.060,-0.037,0.127,1083,0,399,1724,3771,733,424,611,0,0.000,1,0,0.140,0.022,0.120,-0.040,0.060,-0.059,-0.130,0.992,0.022,-0.002,-0.014,0.000,0.000,0.000,0.000,0,0,0,0,7,255,0,250,0,0
baseline,4063,4063,0,63988.830,0.989,0.060,-0.037,0.127,1075,0,393,1719,3771,734,423,605,0,0.000,1,0,0.167,0.040,0.120,-0.100,-0.060,-0.062,-0.135,0.993,-0.012,-0.038,-0.014,0.000,0.000,0.000,0.000,0,0,0,0,7,255,0,250,0,0
baseline,4063,4063,0,63993.829,0.989,0.060,-0.037,0.127,1075,0,381,1727,3776,731,429,613,0,0.000,1,0,0.251,0.063,0.120,-0.220,0.000,-0.064,-0.136,0.992,-0.050,-0.038,0.000,0.000,0.000,0.000,0.000,0,0,0,0,7,255,0,250,0,0
baseline,4063,4063,0,63998.829,0.989,0.060,-0.037,0.127,1079,0,384,1735,3767,740,429,616,0,0.000,1,0,0.385,0.068,0.180,-0.160,0.300,-0.060,-0.136,0.994,-0.050,-0.046,0.002,0.000,0.000,0.000,0.000,0,0,0,0,7,255,0,250,0,0
baseline,4063,4063,0,64003.829,0.989,0.060,-0.037,0.127,1083,0,393,1723,3768,732,435,617,0,0.000,1,0,0.654,0.055,0.240,-0.100,0.600,-0.057,-0.131,0.993,-0.030,-0.046,0.000,0.000,0.000,0.000,0.000,0,0,0,0,7,255,0,250,0,0
baseline,4063,4063,0,64008.829,0.989,0.060,-0.037,0.127,1098,0,391,1722,3782,731,429,608,0,0.000,1,0,0.798,0.020,0.420,-0.160,0.660,-0.055,-0.128,0.994,0.012,-0.016,0.000,0.000,0.000,0.000,0.000,0,0,0,0,7,255,0,250,0,0
baseline,4063,4063,0,64013.829,0.989,0.060,-0.037,0.127,1095,0,395,1724,3785,726,431,601,0,0.000,1,0,0.719,0.036,0.420,-0.220,0.540,-0.055,-0.126,0.994,0.034,0.012,0.000,0.000,0.000,0.000,0.000,0,0,0,0,7,255,0,250,0,0
baseline,4063,4063,0,64018.829,0.989,0.060,-0.037,0.127,1095,0,392,1719,3775,731,427,601,0,0.000,1,0,0.639,0.036,0.360,-0.220,0.480,-0.058,-0.130,0.991,0.034,0.012,-0.004,0.000,0.000,0.000,0.000,0,0,0,0,7,255,0,250,0,0
baseline,4080,4080,0,64023.829,0.989,0.060,-0.037,0.127,1093,0,391,1717,3771,727,429,598,0,0.000,1,0,0.610,0.002,0.180,-0.220,0.540,-0.059,-0.132,0.991,0.000,-0.002,-0.022,0.000,0.000,0.000,0.000,0,0,0,0,7,255,0,250,0,0
baseline,4080,4080,0,64028.829,0.989,0.060,-0.037,0.127,1098,0,379,1723,3768,731,431,601,0,0.000,1,0,0.830,0.022,0.180,-0.220,0.780,-0.057,-0.132,0.992,0.000,-0.022,-0.022,0.000,0.000,0.000,0.000,0,0,0,0,7,255,0,250,0,0
baseline,4080,4080,0,64033.829,0.989,0.060,-0.037,0.127,1097,0,389,1721,3783,729,431,603,0,0.000,1,0,0.942,0.023,0.480,-0.220,0.780,-0.054,-0.126,0.993,0.008,-0.022,-0.008,0.000,0.000,0.000,0.000,0,0,0,0,7,255,0,250,0,0
baseline,4080,4080,0,64038.829,0.989,0.060,-0.037,0.127,1077,0,381,1707,3763,727,427,601,0,0.000,1,0,1.016,0.033,0.720,-0.280,0.660,-0.055,-0.128,0.994,0.032,0.008,-0.008,0.000,0.000,0.000,0.000,0,0,0,0,7,255,0,250,0,0
baseline,4095,4095,0,64043.829,0.989,0.060,-0.037,0.127,1087,0,388,1711,3775,739,430,601,0,0.000,1,0,0.852,0.033,0.720,-0.280,0.360,-0.062,-0.130,0.989,0.032,0.008,-0.008,0.000,0.000,0.000,0.000,0,0,0,0,7,255,0,250,0,0
baseline,4095,4095,0,64048.829,0.989,0.060,-0.037,0.127,1084,0,384,1711,3771,739,428,607,0,0.000,1,0,0.759,0.036,0.480,-0.340,0.480,-0.065,-0.138,0.991,-0.036,0.000,-0.004,0.000,0.000,0.000,0.000,0,0,0,0,7,255,0,250,0,0
baseline,4113,4113,0,64053.829,0.989,0.060,-0.037,0.127,1083,0,383,1719,3768,736,429,603,0,0.000,1,0,0.991,0.043,0.240,-0.280,0.920,-0.062,-0.133,0.994,-0.040,-0.016,-0.004,0.000,0.000,0.000,0.000,0,0,0,0,7,255,0,250,0,0
baseline,4113,4113,0,64058.829,0.989,0.060,-0.037,0.127,1087,0,392,1725,3771,737,435,605,0,0.000,1,0,1.109,0.043,0.180,-0.340,1.040,-0.054,-0.126,0.996,-0.040,-0.016,0.014,0.000,0.000,0.000,0.000,0,0,0,0,7,255,0,250,0,0
baseline,4113,4113,0,64063.829,0.989,0.060,-0.037,0.127,1085,0,383,1719,3775,731,429,599,0,0.000,1,0,0.864,0.060,0.300,-0.220,0.780,-0.052,-0.124,0.995,0.052,0.030,0.014,0.000,0.000,0.000,0.000,0,0,0,0,7,255,0,250,0,0
baseline,4113,4113,0,64068.829,0.989,0.060,-0.037,0.127,1103,0,380,1721,3775,730,429,603,0,0.000,1,0,0.607,0.060,0.300,-0.220,0.480,-0.058,-0.129,0.994,0.052,0.030,0.008,0.000,0.000,0.000,0.000,0,0,0,0,7,255,0,250,0,0
baseline,4113,4113,0,64073.829,0.989,0.060,-0.037,0.127,1098,0,387,1718,3787,730,436,609,0,0.000,1,0,0.685,0.013,0.360,-0.220,0.540,-0.063,-0.135,0.994,0.010,0.008,0.008,0.000,0.000,0.000,0.000,0,0,0,0,7,255,0,250,0,0
baseline,4127,4127,0,64078.829,0.989,0.060,-0.037,0.127,1087,0,377,1711,3776,737,429,606,0,0.000,1,0,0.973,0.013,0.360,-0.280,0.860,-0.057,-0.131,0.996,0.010,-0.008,0.018,0.000,0.000,0.000,0.000,0,0,0,0,7,255,0,250,0,0
baseline,4127,4127,0,64083.829,0.989,0.060,-0.037,0.127,1093,0,379,1717,3764,732,425,604,0,0.000,1,0,1.089,0.014,0.540,-0.220,0.920,-0.051,-0.124,0.996,0.012,-0.008,0.018,0.000,0.000,0.000,0.000,0,0,0,0,7,255,0,250,0,0
baseline,4159,4159,0,64088.829,0.989,0.060,-0.037,0.127,1083,0,379,1721,3771,735,427,611,0,0.000,1,0,0.963,0.059,0.720,-0.220,0.600,-0.055,-0.125,0.992,0.044,0.040,0.014,0.000,0.000,0.000,0.000,0,0,0,0,7,255,0,250,0,0
baseline,4159,4159,0,64093.829,0.989,0.060,-0.037,0.127,1081,0,383,1717,3771,741,431,605,0,0.000,1,0,0.754,0.059,0.600,-0.280,0.360,-0.063,-0.131,0.990,0.044,0.040,-0.024,0.000,0.000,0.000,0.000,0,0,0,0,7,255,0,250,0,0
baseline,4159,4159,0,64098.829,0.989,0.060,-0.037,0.127,1091,0,389,1717,3786,733,431,589,0,0.000,1,0,0.660,0.052,0.300,-0.340,0.480,-0.063,-0.134,0.991,-0.052,-0.004,-0.024,0.000,0.000,0.000,0.000,0,0,0,0,7,255,0,250,0,0
baseline,4159,4159,0,64103.830,0.989,0.060,-0.037,0.127,1095,0,383,1723,3783,729,431,600,0,0.000,1,0,0.727,0.052,0.120,-0.280,0.660,-0.057,-0.129,0.994,-0.052,-0.004,-0.012,0.000,0.000,0.000,0.000,0,0,0,0,7,255,0,250,0,0
baseline,4159,4159,0,64108.829,0.989,0.060,-0.037,0.127,1101,0,389,1735,3771,735,427,600,0,0.000,1,0,0.610,0.018,0.180,-0.220,0.540,-0.053,-0.126,0.994,0.016,0.008,0.000,0.000,0.000,0.000,0.000,0,0,0,0,7,255,0,250,0,0
baseline,4159,4159,0,64113.829,0.989,0.060,-0.037,0.127,1099,0,391,1717,3776,733,435,603,0,0.000,1,0,0.375,0.018,0.240,-0.160,0.240,-0.060,-0.130,0.993,0.016,0.008,0.000,0.000,0.000,0.000,0.000,0,0,0,0,7,255,0,250,0,0
baseline,4175,4175,0,64118.829,0.989,0.060,-0.037,0.127,1088,0,391,1717,3784,735,435,606,0,0.000,1,0,0.361,0.018,0.120,-0.160,0.300,-0.063,-0.137,0.993,-0.018,0.000,0.000,0.000,0.000,0.000,0.000,0,0,0,0,7,255,0,250,0,0
baseline,4175,4175,0,64123.829,0.989,0.060,-0.037,0.127,1087,0,379,1725,3769,739,428,606,0,0.000,1,0,0.740,0.018,0.060,-0.160,0.720,-0.057,-0.130,0.997,-0.018,-0.004,0.010,0.000,0.000,0.000,0.000,0,0,0,0,7,255,0,250,0,0
baseline,4175,4175,0,64128.829,0.989,0.060,-0.037,0.126,1082,0,381,1724,3767,736,429,603,0,0.000,1,0,0.842,0.018,0.300,-0.100,0.780,-0.048,-0.120,0.997,0.018,-0.004,0.018,0.000,0.000,0.000,0.000,0,0,0,0,7,255,0,250,0,0
baseline,4175,4175,0,64133.829,0.989,0.060,-0.037,0.126,1085,0,376,1719,3772,739,428,595,0,0.000,1,0,0.575,0.098,0.480,-0.100,0.300,-0.051,-0.122,0.993,0.082,0.054,0.018,0.000,0.000,0.000,0.000,0,0,0,0,7,255,0,250,0,0
baseline,4191,4191,0,64138.829,0.989,0.060,-0.037,0.126,1085,0,379,1715,3775,736,430,597,0,0.000,1,0,0.340,0.098,0.300,-0.160,0.000,-0.063,-0.128,0.990,0.082,0.054,-0.020,0.000,0.000,0.000,0.000,0,0,0,0,7,255,0,250,0,0
baseline,4191,4191,0,64143.829,0.989,0.060,-0.037,0.126,1079,0,377,1717,3771,740,429,585,0,0.000,1,0,0.278,0.053,0.120,-0.220,0.120,-0.064,-0.134,0.993,-0.046,0.026,-0.020,0.000,0.000,0.000,0.000,0,0,0,0,7,255,0,250,0,0
baseline,4191,4191,0,64148.829,0.989,0.060,-0.037,0.126,1098,0,372,1709,3773,738,427,586,0,0.000,1,0,0.295,0.046,0.060,-0.160,0.240,-0.059,-0.130,0.996,-0.046,-0.002,0.004,0.000,0.000,0.000,0.000,0,0,0,0,7,255,0,250,0,0
baseline,4191,4191,0,64153.829,0.989,0.060,-0.037,0.126,1100,0,388,1715,3787,739,431,595,0,0.000,1,0,0.184,0.004,0.180,-0.040,0.000,-0.057,-0.127,0.996,-0.004,-0.002,0.018,0.000,0.000,0.000,0.000,0,0,0,0,7,255,0,250,0,0
baseline,4207,4207,0,64158.829,0.989,0.060,-0.037,0.126,1093,0,381,1709,3773,745,429,599,0,0.000,1,0,0.238,0.004,0.120,-0.100,-0.180,-0.063,-0.135,0.995,-0.004,-0.002,0.022,0.000,0.000,0.000,0.000,0,0,0,0,7,255,0,250,0,0
baseline,4207,4207,0,64163.829,0.989,0.060,-0.037,0.126,1083,0,382,1719,3772,741,426,601,0,0.000,1,0,0.157,0.067,-0.140,-0.040,0.060,-0.065,-0.136,0.994,-0.056,-0.036,0.020,0.000,0.000,0.000,0.000,0,0,0,0,7,255,0,250,0,0
baseline,4223,4223,0,64168.829,0.989,0.060,-0.037,0.126,1080,0,383,1711,3781,736,428,603,0,0.000,1,0,0.555,0.067,-0.260,-0.100,0.480,-0.054,-0.127,0.997,-0.056,-0.036,0.022,0.000,0.000,0.000,0.000,0,0,0,0,7,255,0,250,0,0
baseline,4223,4223,0,64173.829,0.989,0.060,-0.037,0.126,1080,0,381,1709,3763,739,427,590,0,0.000,1,0,0.366,0.051,0.060,0.020,0.360,-0.047,-0.116,0.995,0.048,0.018,0.020,0.000,0.000,0.000,0.000,0,0,0,0,7,255,0,250,0,0
baseline,4257,4257,0,64178.829,0.989,0.060,-0.037,0.126,1087,0,375,1711,3781,733,431,589,0,0.000,1,0,0.385,0.099,0.300,0.020,-0.240,-0.051,-0.122,0.993,0.084,0.052,-0.006,0.000,0.000,0.000,0.000,0,0,0,0,7,255,0,250,0,0
baseline,4257,4257,0,64183.829,0.989,0.060,-0.037,0.126,1085,0,376,1712,3772,737,430,585,0,0.000,1,0,0.516,0.099,0.120,-0.040,-0.500,-0.061,-0.130,0.990,0.084,0.052,-0.020,0.000,0.000,0.000,0.000,0,0,0,0,7,255,0,250,0,0
baseline,4257,4257,0,64188.829,0.989,0.060,-0.037,0.126,1087,0,373,1709,3771,741,435,585,0,0.000,1,0,0.313,0.028,-0.080,-0.040,-0.300,-0.061,-0.131,0.993,-0.028,-0.004,-0.020,0.000,0.000,0.000,0.000,0,0,0,0,7,255,0,250,0,0
baseline,4257,4257,0,64193.829,0.989,0.060,-0.037,0.126,1097,0,378,1710,3771,736,430,583,0,0.000,1,0,0.185,0.029,-0.140,0.020,-0.120,-0.057,-0.131,0.995,-0.028,-0.006,0.002,0.000,0.000,0.000,0.000,0,0,0,0,7,255,0,250,0,0
baseline,4257,4257,0,64198.829,0.989,0.060,-0.037,0.126,1098,0,389,1711,3775,737,435,594,0,0.000,1,0,0.451,0.012,0.060,0.080,-0.440,-0.059,-0.129,0.994,-0.010,-0.006,0.002,0.000,0.000,0.000,0.000,0,0,0,0,7,255,0,250,0,0
baseline,4257,4257,0,64203.829,0.989,0.060,-0.037,0.126,1078,0,389,1715,3784,741,429,593,0,0.000,1,0,0.641,0.021,-0.140,0.080,-0.620,-0.065,-0.138,0.992,-0.010,-0.018,0.004,0.000,0.000,0.000,0.000,0,0,0,0,7,255,0,250,0,0
baseline,4271,4271,0,64208.829,0.989,0.060,-0.037,0.126,1069,0,380,1719,3783,739,427,593,0,0.000,1,0,0.424,0.087,-0.320,0.140,-0.240,-0.064,-0.137,0.994,-0.070,-0.052,0.004,0.000,0.000,0.000,0.000,0,0,0,0,7,255,0,250,0,0
baseline,4271,4271,0,64213.829,0.989,0.060,-0.037,0.126,1079,0,381,1711,3775,736,432,588,0,0.000,1,0,0.443,0.087,-0.380,0.140,0.180,-0.054,-0.127,0.998,-0.070,-0.052,0.020,0.000,0.000,0.000,0.000,0,0,0,0,7,255,0,250,0,0
baseline,4271,4271,0,64218.829,0.989,0.060,-0.037,0.126,1081,0,379,1709,3763,741,425,579,0,0.000,1,0,0.244,0.051,-0.140,0.200,0.000,-0.048,-0.120,0.997,0.048,0.018,0.020,0.000,0.000,0.000,0.000,0,0,0,0,7,255,0,250,0,0
baseline,4271,4271,0,64223.829,0.989,0.060,-0.037,0.126,1099,0,375,1721,3782,731,429,576,0,0.000,1,0,0.580,0.082,0.060,0.140,-0.560,-0.055,-0.122,0.993,0.048,0.066,0.016,0.000,0.000,0.000,0.000,0,0,0,0,7,255,0,250,0,0
baseline,4271,4271,0,64228.829,0.989,0.060,-0.037,0.127,1106,0,377,1718,3781,739,427,580,0,0.000,1,0,0.641,0.082,-0.080,0.140,-0.620,-0.061,-0.131,0.991,0.048,0.066,-0.018,0.000,0.000,0.000,0.000,0,0,0,0,7,255,0,250,0,0
baseline,4271,4271,0,64233.829,0.989,0.060,-0.037,0.127,1095,0,389,1721,3783,739,435,583,0,0.000,1,0,0.490,0.007,-0.200,0.080,-0.440,-0.059,-0.129,0.994,-0.006,0.004,-0.018,0.000,0.000,0.000,0.000,0,0,0,0,7,255,0,250,0,0
baseline,4287,4287,0,64238.829,0.989,0.060,-0.037,0.127,1079,0,387,1715,3771,741,429,581,0,0.000,1,0,0.517,0.007,-0.080,0.260,-0.440,-0.052,-0.126,0.995,-0.006,0.004,0.004,0.000,0.000,0.000,0.000,0,0,0,0,7,255,0,250,0,0
baseline,4287,4287,0,64243.829,0.989,0.060,-0.037,0.127,1083,0,377,1711,3775,746,428,594,0,0.000,1,0,0.899,0.021,-0.020,0.260,-0.860,-0.056,-0.128,0.992,0.018,0.010,0.004,0.000,0.000,0.000,0.000,0,0,0,0,7,255,0,250,0,0
baseline,4303,4303,0,64248.829,0.989,0.060,-0.037,0.127,1077,0,381,1717,3769,745,429,593,0,0.000,1,0,1.059,0.021,-0.140,0.140,-1.040,-0.066,-0.138,0.990,0.018,0.010,-0.016,0.000,0.000,0.000,0.000,0,0,0,0,7,255,0,250,0,0
baseline,4303,4303,0,64253.829,0.989,0.060,-0.037,0.127,1077,0,387,1715,3788,742,435,584,0,0.000,1,0,0.786,0.101,-0.440,0.200,-0.620,-0.065,-0.138,0.994,-0.084,-0.056,-0.016,0.000,0.000,0.000,0.000,0,0,0,0,7,255,0,250,0,0
baseline,4303,4303,0,64258.829,0.989,0.060,-0.037,0.127,1095,0,383,1722,3769,744,425,586,0,0.000,1,0,0.616,0.101,-0.500,0.200,-0.300,-0.055,-0.130,0.995,-0.084,-0.056,0.014,0.000,0.000,0.000,0.000,0,0,0,0,7,255,0,250,0,0
baseline,4303,4303,0,64263.829,0.989,0.060,-0.037,0.127,1105,0,379,1723,3775,743,427,570,0,0.000,1,0,0.561,0.033,-0.320,0.260,-0.380,-0.052,-0.124,0.995,0.032,-0.006,0.014,0.000,0.000,0.000,0.000,0,0,0,0,7,255,0,250,0,0
baseline,4321,4321,0,64268.829,0.989,0.060,-0.037,0.127,1100,0,379,1723,3780,739,431,575,0,0.000,1,0,0.721,0.032,-0.260,0.260,-0.620,-0.057,-0.129,0.993,0.032,0.002,0.006,0.000,0.000,0.000,0.000,0,0,0,0,7,255,0,250,0,0
baseline,4321,4321,0,64273.829,0.989,0.060,-0.037,0.127,1096,0,380,1723,3789,743,431,589,0,0.000,1,0,0.621,0.008,-0.260,0.260,-0.500,-0.060,-0.134,0.993,0.008,0.002,0.000,0.000,0.000,0.000,0.000,0,0,0,0,7,255,0,250,0,0
baseline,4353,4353,0,64278.829,0.989,0.060,-0.037,0.127,1095,0,393,1721,3786,736,428,596,0,0.000,1,0,0.439,0.010,-0.260,0.260,-0.240,-0.055,-0.130,0.994,0.008,-0.006,0.000,0.000,0.000,0.000,0.000,0,0,0,0,7,255,0,250,0,0
baseline,4353,4353,0,64283.829,0.989,0.060,-0.037,0.127,1075,0,388,1719,3776,739,427,598,0,0.000,1,0,0.497,0.027,-0.020,0.320,-0.380,-0.048,-0.122,0.995,0.026,-0.006,0.000,0.000,0.000,0.000,0.000,0,0,0,0,7,255,0,250,0,0
baseline,4353,4353,0,64288.829,0.989,0.060,-0.037,0.127,1083,0,396,1715,3770,743,429,595,0,0.000,1,0,0.850,0.047,0.120,0.260,-0.800,-0.055,-0.125,0.992,0.036,0.030,0.000,0.000,0.000,0.000,0.000,0,0,0,0,7,255,0,250,0,0
baseline,4353,4353,0,64293.829,0.989,0.060,-0.037,0.127,1081,0,389,1712,3772,744,428,583,0,0.000,1,0,0.942,0.047,-0.020,0.200,-0.920,-0.065,-0.133,0.990,0.036,0.030,-0.020,0.000,0.000,0.000,0.000,0,0,0,0,7,255,0,250,0,0
baseline,4353,4353,0,64298.829,0.989,0.060,-0.037,0.127,1083,0,383,1723,3773,741,428,583,0,0.000,1,0,0.675,0.069,-0.320,0.200,-0.560,-0.063,-0.135,0.993,-0.066,-0.020,-0.020,0.000,0.000,0.000,0.000,0,0,0,0,7,255,0,250,0,0
baseline,4353,4353,0,64303.830,0.989,0.060,-0.037,0.127,1101,0,405,1720,3783,736,427,584,0,0.000,1,0,0.600,0.069,-0.500,0.140,-0.300,-0.057,-0.130,0.995,-0.066,-0.020,0.002,0.000,0.000,0.000,0.000,0,0,0,0,7,255,0,250,0,0
baseline,4367,4367,0,64308.829,0.989,0.060,-0.037,0.127,1110,0,403,1735,3781,744,427,582,0,0.000,1,0,0.580,0.012,-0.320,0.200,-0.440,-0.056,-0.128,0.994,0.010,-0.006,0.002,0.000,0.000,0.000,0.000,0,0,0,0,7,255,0,250,0,0
baseline,4367,4367,0,64313.829,0.989,0.060,-0.037,0.127,1101,0,401,1723,3775,741,426,599,0,0.000,1,0,0.726,0.012,-0.320,0.200,-0.620,-0.063,-0.136,0.992,0.010,-0.006,0.000,0.000,0.000,0.000,0.000,0,0,0,0,7,255,0,250,0,0
baseline,4367,4367,0,64318.829,0.989,0.060,-0.037,0.127,1085,0,398,1717,3771,745,424,597,0,0.000,1,0,0.516,0.074,-0.320,0.140,-0.380,-0.064,-0.139,0.995,-0.060,-0.044,0.000,0.000,0.000,0.000,0.000,0,0,0,0,7,255,0,250,0,0
baseline,4367,4367,0,64323.829,0.989,0.060,-0.037,0.127,1078,0,399,1709,3771,732,425,589,0,0.000,1,0,0.354,0.074,-0.320,0.140,0.060,-0.054,-0.131,0.995,-0.060,-0.044,0.016,0.000,0.000,0.000,0.000,0,0,0,0,7,255,0,250,0,0
baseline,4367,4367,0,64328.829,0.989,0.060,-0.037,0.127,1095,0,404,1721,3763,739,429,587,0,0.000,1,0,0.154,0.043,-0.020,0.140,-0.060,-0.048,-0.121,0.995,0.038,-0.020,0.016,0.000,0.000,0.000,0.000,0,0,0,0,7,255,0,250,0,0
baseline,4383,4383,0,64333.829,0.989,0.060,-0.037,0.127,1103,0,395,1723,3770,738,428,585,0,0.000,1,0,0.560,0.068,0.240,0.080,-0.500,-0.053,-0.124,0.992,0.054,0.042,-0.004,0.000,0.000,0.000,0.000,0,0,0,0,7,255,0,250,0,0
baseline,4383,4383,0,64338.829,0.989,0.060,-0.037,0.127,1096,0,395,1723,3771,733,430,580,0,0.000,1,0,0.537,0.068,0.180,0.080,-0.500,-0.061,-0.132,0.991,0.054,0.042,-0.022,0.000,0.000,0.000,0.000,0,0,0,0,7,255,0,250,0,0
baseline,4400,4400,0,64343.829,0.989,0.060,-0.037,0.127,1093,0,399,1719,3787,739,438,585,0,0.000,1,0,0.265,0.023,-0.080,0.080,-0.240,-0.059,-0.132,0.993,-0.018,-0.014,-0.022,0.000,0.000,0.000,0.000,0,0,0,0,7,255,0,250,0,0
baseline,4400,4400,0,64348.829,0.989,0.060,-0.037,0.127,1092,0,400,1720,3783,744,435,593,0,0.000,1,0,0.198,0.023,-0.020,0.080,-0.180,-0.054,-0.127,0.993,-0.018,-0.014,-0.008,0.000,0.000,0.000,0.000,0,0,0,0,7,255,0,250,0,0
baseline,4400,4400,0,64353.829,0.989,0.060,-0.037,0.127,1083,0,392,1707,3796,739,425,597,0,0.000,1,0,0.406,0.013,0.120,0.080,-0.380,-0.057,-0.128,0.991,0.010,0.008,-0.008,0.000,0.000,0.000,0.000,0,0,0,0,7,255,0,250,0,0
baseline,4400,4400,0,64358.829,0.989,0.060,-0.037,0.127,1086,0,405,1715,3787,750,429,598,0,0.000,1,0,0.448,0.013,-0.020,0.080,-0.440,-0.064,-0.135,0.992,0.010,0.008,-0.008,0.000,0.000,0.000,0.000,0,0,0,0,7,255,0,250,0,0
baseline,4415,4415,0,64363.829,0.989,0.060,-0.037,0.127,1085,0,389,1711,3781,740,423,588,0,0.000,1,0,0.281,0.068,-0.200,0.080,-0.180,-0.063,-0.136,0.995,-0.058,-0.036,0.000,0.000,0.000,0.000,0.000,0,0,0,0,7,255,0,250,0,0
baseline,4415,4415,0,64368.829,0.989,0.060,-0.037,0.127,1095,0,398,1722,3773,736,437,595,0,0.000,1,0,0.224,0.068,-0.200,0.080,0.060,-0.059,-0.131,0.996,-0.058,-0.036,0.024,0.000,0.000,0.000,0.000,0,0,0,0,7,255,0,250,0,0
prep,15,15,0,64373.829,0.989,0.060,-0.037,0.127,1096,0,396,1708,3799,745,430,583,0,0.000,1,0,0.172,0.010,-0.080,0.140,0.060,-0.058,-0.131,0.995,-0.008,-0.006,0.024,0.000,0.000,0.000,0.000,0,0,0,0,7,255,0,250,0,0
prep,15,15,0,64378.829,0.989,0.060,-0.037,0.127,1109,0,405,1724,3784,743,437,597,0,0.000,1,0,0.146,0.008,-0.080,0.020,-0.120,-0.058,-0.132,0.995,-0.006,-0.006,0.014,0.000,0.000,0.000,0.000,0,0,0,0,7,255,0,250,0,0
prep,32,32,0,64383.829,0.989,0.060,-0.037,0.127,1111,0,399,1724,3789,743,425,587,0,0.000,1,0,0.317,0.015,-0.020,-0.100,-0.300,-0.060,-0.132,0.995,-0.006,-0.014,0.014,0.000,0.000,0.000,0.000,0,0,0,0,7,255,0,250,0,0
prep,32,32,0,64388.830,0.989,0.060,-0.037,0.127,1117,0,409,1726,3781,749,432,602,0,0.000,1,0,0.443,0.015,0.060,-0.220,-0.380,-0.056,-0.126,0.994,-0.006,-0.014,0.014,0.000,0.000,0.000,0.000,0,0,0,0,7,255,0,250,0,0
prep,32,32,0,64393.829,0.989,0.060,-0.037,0.127,1099,0,403,1712,3789,745,427,600,0,0.000,1,0,0.367,0.042,0.360,-0.040,0.060,-0.050,-0.119,0.990,0.030,0.030,-0.004,0.000,0.000,0.000,0.000,0,0,0,0,7,255,0,250,0,0
prep,32,32,0,64398.829,0.989,0.060,-0.037,0.127,1121,0,407,1721,3775,751,438,607,0,0.000,1,0,1.122,0.105,0.480,0.260,0.980,-0.050,-0.121,0.990,0.086,0.060,-0.050,0.000,0.000,0.000,0.000,0,0,0,0,7,255,0,250,0,0
prep,32,32,0,64403.829,0.989,0.060,-0.037,0.127,1101,0,393,1718,3787,743,427,598,0,0.000,1,0,0.991,0.105,0.180,0.320,0.920,-0.065,-0.139,0.996,0.086,0.060,-0.050,0.000,0.000,0.000,0.000,0,0,0,0,7,255,0,250,0,0
prep,32,32,0,64408.829,0.989,0.060,-0.037,0.127,1115,0,409,1727,3792,755,433,605,0,0.000,1,0,1.097,0.108,-0.620,-0.280,-0.860,-0.073,-0.154,1.002,-0.088,-0.062,0.042,0.000,0.000,0.000,0.000,0,0,0,0,7,255,0,250,0,0
prep,47,47,0,64413.829,0.989,0.060,-0.037,0.127,1107,0,408,1725,3795,741,432,601,0,0.000,1,0,1.673,0.108,-0.440,-0.900,-1.340,-0.055,-0.126,0.994,-0.088,-0.062,0.042,0.000,0.000,0.000,0.000,0,0,0,0,7,255,0,250,0,0
prep,47,47,0,64418.829,0.989,0.060,-0.037,0.127,1114,0,409,1727,3799,751,433,606,0,0.000,1,0,1.482,0.045,0.840,-0.040,1.220,-0.043,-0.104,0.979,0.034,0.030,-0.004,0.000,0.000,0.000,0.000,0,0,0,0,7,255,0,250,0,0
prep,47,47,0,64423.829,0.989,0.060,-0.037,0.127,1111,0,393,1715,3797,741,431,601,0,0.000,1,0,1.881,0.045,0.600,1.300,1.220,-0.069,-0.144,0.991,0.034,0.030,-0.004,0.000,0.000,0.000,0.000,0,0,0,0,7,255,0,250,0,0
prep,47,47,0,64428.829,0.989,0.060,-0.037,0.127,1115,0,407,1723,3789,745,436,607,0,0.000,1,0,2.305,0.108,-0.740,-0.960,-1.960,-0.059,-0.147,1.017,-0.036,-0.102,0.004,0.000,0.000,0.000,0.000,0,0,0,0,7,255,0,250,0,0
prep,69,69,0,64433.829,0.989,0.060,-0.037,0.127,1112,0,407,1717,3799,745,430,600,0,0.000,1,0,2.120,0.108,0.480,-1.620,1.280,-0.037,-0.095,0.977,-0.036,-0.102,0.004,0.000,0.000,0.000,0.000,0,0,0,0,7,255,0,250,0,0
prep,69,69,0,64438.829,0.989,0.060,-0.037,0.127,1113,0,407,1724,3787,746,437,603,0,0.000,1,0,3.573,0.141,0.600,2.940,1.940,-0.085,-0.150,0.975,-0.036,-0.136,-0.136,0.000,0.000,0.000,0.000,0,0,0,0,7,255,0,250,0,0
prep,70,70,0,64443.829,0.989,0.060,-0.037,0.127,1114,0,403,1712,3804,742,426,599,0,0.000,1,0,4.323,0.145,-0.920,-1.760,-3.840,-0.057,-0.155,1.039,-0.016,-0.144,-0.136,0.000,0.000,0.000,0.000,0,0,0,0,7,255,0,250,0,0
prep,70,70,0,64448.829,0.989,0.060,-0.037,0.127,1113,0,411,1733,3801,751,435,605,0,0.000,1,0,4.193,0.145,1.340,-2.300,3.240,-0.024,-0.069,0.958,-0.016,-0.144,-0.136,0.000,0.000,0.000,0.000,0,0,0,0,7,255,0,250,0,0
prep,79,79,0,64453.829,0.989,0.060,-0.037,0.127,1104,0,405,1712,3805,747,427,605,0,0.000,1,0,4.955,0.185,-0.320,4.900,0.660,-0.101,-0.181,0.982,-0.016,-0.184,-0.022,0.000,0.000,0.000,0.000,0,0,0,0,7,255,0,250,0,0
prep,79,79,0,64458.829,0.989,0.060,-0.037,0.127,1118,0,409,1734,3791,749,435,606,0,0.000,1,0,5.711,0.331,-0.200,-4.740,-3.180,-0.033,-0.117,1.048,0.308,0.122,-0.022,0.000,0.000,0.000,0.000,0,0,0,0,7,255,0,250,0,0
prep,98,98,0,64463.829,0.989,0.060,-0.037,0.127,1107,0,408,1717,3797,742,427,605,0,0.000,1,0,4.763,0.125,1.280,1.300,4.400,-0.061,-0.105,0.926,-0.026,0.122,-0.022,0.000,0.000,0.000,0.000,0,0,0,0,7,255,0,250,0,0
prep,98,98,0,64468.829,0.989,0.060,-0.037,0.127,1118,0,407,1735,3787,749,437,605,0,0.000,1,0,4.160,0.125,-1.300,1.980,-3.420,-0.067,-0.170,1.038,-0.026,0.122,0.486,0.000,0.000,0.000,0.000,0,0,0,0,7,255,0,250,0,0
prep,98,98,0,64473.829,0.989,0.060,-0.037,0.127,1113,0,399,1709,3802,741,429,604,0,0.000,1,0,5.548,0.170,1.880,-4.200,3.100,-0.046,-0.088,0.979,-0.026,0.168,-0.198,0.000,0.000,0.000,0.000,0,0,0,0,7,255,0,250,0,0
prep,98,98,0,64478.829,0.989,0.060,-0.037,0.127,1113,0,405,1721,3784,750,437,611,0,0.000,1,0,4.860,0.343,-1.480,4.040,-2.260,-0.068,-0.167,0.987,-0.146,-0.310,-0.010,0.000,0.000,0.000,0.000,0,0,0,0,7,255,0,250,0,0
prep,132,132,0,64483.829,0.989,0.060,-0.037,0.127,1123,0,405,1720,3787,747,430,612,0,0.000,1,0,4.806,0.379,1.760,-3.580,2.680,-0.049,-0.093,1.006,0.180,0.334,-0.010,0.000,0.000,0.000,0.000,0,0,0,0,7,255,0,250,0,0
prep,132,132,0,64488.829,0.989,0.060,-0.037,0.127,1117,0,407,1721,3785,748,437,613,0,0.000,1,0,3.732,0.356,-1.360,2.640,-2.260,-0.064,-0.165,0.982,-0.152,-0.322,-0.010,0.000,0.000,0.000,0.000,0,0,0,0,7,255,0,250,0,0
prep,133,133,0,64493.829,0.989,0.060,-0.037,0.127,1123,0,409,1710,3790,748,430,608,0,0.000,1,0,4.019,0.359,1.580,-2.480,2.740,-0.053,-0.093,0.999,0.132,0.334,0.002,0.000,0.000,0.000,0.000,0,0,0,0,7,255,0,250,0,0
prep,133,133,0,64498.829,0.989,0.060,-0.037,0.127,1117,0,408,1720,3789,750,431,614,0,0.000,1,0,3.250,0.318,-1.240,1.980,-2.260,-0.059,-0.163,0.993,-0.088,-0.306,0.002,0.000,0.000,0.000,0.000,0,0,0,0,7,255,0,250,0,0
prep,134,134,0,64503.829,0.989,0.060,-0.037,0.127,1115,0,404,1731,3789,747,429,613,0,0.000,1,0,3.291,0.284,1.400,-1.940,2.260,-0.059,-0.100,0.987,0.056,0.278,0.002,0.000,0.000,0.000,0.000,0,0,0,0,7,255,0,250,0,0
prep,134,134,0,64508.829,0.989,0.060,-0.037,0.127,1123,0,399,1709,3795,745,426,601,0,0.000,1,0,1.931,0.214,-0.920,1.240,-1.160,-0.054,-0.153,1.004,-0.014,-0.214,0.040,0.000,0.000,0.000,0.000,0,0,0,0,7,255,0,250,0,0
prep,165,165,0,64513.829,0.989,0.060,-0.037,0.127,1117,0,401,1723,3799,745,436,611,0,0.000,1,0,1.267,0.147,0.780,-0.840,0.540,-0.063,-0.114,0.980,-0.014,0.146,-0.096,0.000,0.000,0.000,0.000,0,0,0,0,7,255,0,250,0,0
prep,165,165,0,64518.829,0.989,0.060,-0.037,0.127,1109,0,397,1706,3773,743,427,601,0,0.000,1,0,1.174,0.033,0.180,0.020,1.160,-0.053,-0.133,1.006,-0.014,-0.030,0.128,0.000,0.000,0.000,0.000,0,0,0,0,7,255,0,250,0,0
prep,165,165,0,64523.829,0.989,0.060,-0.037,0.127,1125,0,411,1721,3797,749,432,613,0,0.000,1,0,1.903,0.040,-0.620,0.260,-1.780,-0.063,-0.138,0.986,-0.026,-0.030,-0.054,0.000,0.000,0.000,0.000,0,0,0,0,7,255,0,250,0,0
prep,165,165,0,64528.829,0.989,0.060,-0.037,0.127,1118,0,408,1724,3784,747,437,615,0,0.000,1,0,2.722,0.057,1.460,-0.660,2.200,-0.054,-0.111,0.992,0.048,-0.030,-0.036,0.000,0.000,0.000,0.000,0,0,0,0,7,255,0,250,0,0
prep,165,165,0,64533.829,0.989,0.060,-0.037,0.127,1123,0,411,1733,3797,747,438,606,0,0.000,1,0,1.590,0.096,-1.160,0.320,-1.040,-0.060,-0.151,1.004,-0.064,-0.072,-0.036,0.000,0.000,0.000,0.000,0,0,0,0,7,255,0,250,0,0
prep,165,165,0,64538.829,0.989,0.060,-0.037,0.127,1121,0,409,1719,3787,748,437,609,0,0.000,1,0,0.762,0.167,0.660,0.020,-0.380,-0.058,-0.108,0.978,0.030,0.164,-0.036,0.000,0.000,0.000,0.000,0,0,0,0,7,255,0,250,0,0
prep,175,175,0,64543.829,0.989,0.060,-0.037,0.126,1117,0,407,1723,3785,755,439,616,0,0.000,1,0,2.084,0.022,0.720,-0.540,1.880,-0.057,-0.132,1.007,0.012,-0.018,0.136,0.000,0.000,0.000,0.000,0,0,0,0,7,255,0,250,0,0
prep,175,175,0,64548.829,0.989,0.060,-0.037,0.127,1123,0,405,1733,3791,755,437,609,0,0.000,1,0,2.108,0.022,-1.300,0.440,-1.600,-0.063,-0.141,0.994,0.012,-0.018,0.022,0.000,0.000,0.000,0.000,0,0,0,0,7,255,0,250,0,0
prep,191,191,0,64553.829,0.989,0.060,-0.037,0.127,1116,0,404,1722,3785,747,439,614,0,0.000,1,0,1.159,0.022,1.080,-0.220,0.360,-0.053,-0.112,0.982,0.012,-0.018,0.022,0.000,0.000,0.000,0.000,0,0,0,0,7,255,0,250,0,0
prep,191,191,0,64558.829,0.989,0.060,-0.037,0.126,1115,0,411,1733,3799,749,437,607,0,0.000,1,0,1.291,0.068,0.360,-0.220,1.220,-0.061,-0.137,1.007,-0.038,-0.056,0.022,0.000,0.000,0.000,0.000,0,0,0,0,7,255,0,250,0,0
prep,191,191,0,64563.829,0.989,0.060,-0.037,0.127,1115,0,404,1725,3793,746,439,615,0,0.000,1,0,1.670,0.068,-1.240,0.200,-1.100,-0.063,-0.138,0.993,-0.038,-0.056,0.014,0.000,0.000,0.000,0.000,0,0,0,0,7,255,0,250,0,0
prep,191,191,0,64568.829,0.989,0.060,-0.037,0.127,1119,0,408,1723,3789,750,437,612,0,0.000,1,0,0.620,0.068,0.600,-0.100,-0.120,-0.052,-0.117,0.983,-0.038,-0.056,0.014,0.000,0.000,0.000,0.000,0,0,0,0,7,255,0,250,0,0
prep,207,207,0,64573.829,0.989,0.060,-0.037,0.127,1125,0,405,1735,3801,748,434,605,0,0.000,1,0,1.238,0.003,0.960,-0.040,0.780,-0.058,-0.130,1.001,0.002,-0.002,0.014,0.000,0.000,0.000,0.000,0,0,0,0,7,255,0,250,0,0
prep,207,207,0,64578.829,0.989,0.060,-0.037,0.127,1115,0,399,1723,3785,755,441,616,0,0.000,1,0,1.056,0.003,-1.040,0.020,-0.180,-0.063,-0.139,1.001,0.002,-0.002,0.082,0.000,0.000,0.000,0.000,0,0,0,0,7,255,0,250,0,0
prep,239,239,0,64583.829,0.989,0.060,-0.037,0.127,1125,0,405,1721,3785,746,432,615,0,0.000,1,0,0.752,0.003,-0.500,-0.040,-0.560,-0.055,-0.124,0.981,0.002,-0.002,0.082,0.000,0.000,0.000,0.000,0,0,0,0,7,255,0,250,0,0
prep,239,239,0,64588.830,0.989,0.060,-0.037,0.127,1120,0,407,1732,3802,751,437,611,0,0.000,1,0,1.421,0.037,1.400,0.020,0.240,-0.054,-0.124,0.993,0.026,0.026,-0.014,0.000,0.000,0.000,0.000,0,0,0,0,7,255,0,250,0,0
prep,239,239,0,64593.829,0.989,0.060,-0.037,0.127,1117,0,404,1719,3784,756,437,615,0,0.000,1,0,0.426,0.037,0.060,-0.040,0.420,-0.062,-0.137,1.008,0.026,0.026,-0.014,0.000,0.000,0.000,0.000,0,0,0,0,7,255,0,250,0,0
prep,239,239,0,64598.829,0.989,0.060,-0.037,0.126,1117,0,411,1719,3791,750,435,603,0,0.000,1,0,1.426,0.038,-1.420,-0.040,-0.120,-0.061,-0.130,0.991,-0.038,-0.002,-0.014,0.000,0.000,0.000,0.000,0,0,0,0,7,255,0,250,0,0
prep,239,239,0,64603.829,0.989,0.060,-0.037,0.126,1123,0,405,1717,3794,744,437,616,0,0.000,1,0,0.537,0.038,0.180,0.080,-0.500,-0.055,-0.125,0.981,-0.038,-0.002,-0.022,0.000,0.000,0.000,0.000,0,0,0,0,7,255,0,250,0,0
prep,239,239,0,64608.829,0.989,0.060,-0.037,0.127,1125,0,411,1719,3799,752,431,615,0,0.000,1,0,1.149,0.020,1.140,0.080,-0.120,-0.055,-0.133,0.998,0.020,-0.002,-0.022,0.000,0.000,0.000,0.000,0,0,0,0,7,255,0,250,0,0
prep,255,255,0,64613.829,0.989,0.060,-0.037,0.127,1116,0,405,1719,3793,748,435,617,0,0.000,1,0,0.363,0.030,-0.200,-0.040,0.300,-0.058,-0.132,1.001,0.020,-0.022,0.046,0.000,0.000,0.000,0.000,0,0,0,0,7,255,0,250,0,0
prep,255,255,0,64618.829,0.989,0.060,-0.037,0.127,1125,0,407,1717,3784,750,436,615,0,0.000,1,0,0.929,0.023,-0.920,-0.040,0.120,-0.061,-0.125,0.992,-0.008,-0.022,0.046,0.000,0.000,0.000,0.000,0,0,0,0,7,255,0,250,0,0
prep,255,255,0,64623.829,0.989,0.060,-0.037,0.127,1107,0,405,1704,3785,759,427,602,0,0.000,1,0,0.482,0.016,-0.140,0.140,-0.440,-0.059,-0.128,0.987,-0.016,0.000,-0.014,0.000,0.000,0.000,0.000,0,0,0,0,7,255,0,250,0,0
prep,255,255,0,64628.829,0.989,0.060,-0.037,0.126,1123,0,413,1713,3798,749,433,609,0,0.000,1,0,0.651,0.016,0.480,0.020,-0.440,-0.055,-0.137,0.993,-0.016,0.000,-0.014,0.000,0.000,0.000,0.000,0,0,0,0,7,255,0,250,0,0
prep,271,271,0,64633.829,0.989,0.060,-0.037,0.126,1121,0,412,1721,3791,756,431,617,0,0.000,1,0,0.126,0.018,0.120,-0.040,0.000,-0.055,-0.131,0.997,0.002,-0.018,0.008,0.000,0.000,0.000,0.000,0,0,0,0,7,255,0,250,0,0
prep,271,271,0,64638.829,0.989,0.060,-0.037,0.126,1125,0,413,1723,3773,759,432,615,0,0.000,1,0,0.313,0.018,-0.200,0.020,0.240,-0.060,-0.125,0.994,0.002,-0.018,0.008,0.000,0.000,0.000,0.000,0,0,0,0,7,255,0,250,0,0
prep,271,271,0,64643.829,0.989,0.060,-0.037,0.126,1117,0,410,1723,3795,755,437,617,0,0.000,1,0,0.201,0.042,-0.140,0.080,-0.120,-0.062,-0.126,0.994,-0.012,0.040,0.006,0.000,0.000,0.000,0.000,0,0,0,0,7,255,0,250,0,0
prep,271,271,0,64648.829,0.989,0.060,-0.037,0.126,1117,0,414,1721,3797,758,431,612,0,0.000,1,0,0.623,0.048,-0.260,0.080,-0.560,-0.060,-0.130,0.993,-0.026,0.040,0.002,0.000,0.000,0.000,0.000,0,0,0,0,7,255,0,250,0,0
prep,288,288,0,64653.829,0.989,0.060,-0.037,0.126,1123,0,413,1720,3786,755,432,615,0,0.000,1,0,0.513,0.026,-0.080,0.080,-0.500,-0.055,-0.132,0.991,-0.026,-0.002,0.002,0.000,0.000,0.000,0.000,0,0,0,0,7,255,0,250,0,0
prep,288,288,0,64658.829,0.989,0.060,-0.037,0.126,1115,0,409,1719,3795,750,435,615,0,0.000,1,0,0.191,0.023,0.180,0.020,-0.060,-0.054,-0.130,0.993,0.012,-0.020,-0.002,0.000,0.000,0.000,0.000,0,0,0,0,7,255,0,250,0,0
prep,303,303,0,64663.829,0.989,0.060,-0.037,0.126,1113,0,411,1733,3787,747,429,613,0,0.000,1,0,0.201,0.023,-0.080,-0.040,0.180,-0.058,-0.131,0.995,0.012,-0.020,-0.002,0.000,0.000,0.000,0.000,0,0,0,0,7,255,0,250,0,0
prep,303,303,0,64668.829,0.989,0.060,-0.037,0.126,1113,0,415,1723,3789,752,437,615,0,0.000,1,0,0.185,0.019,-0.140,0.020,-0.120,-0.060,-0.127,0.993,-0.006,-0.018,-0.002,0.000,0.000,0.000,0.000,0,0,0,0,7,255,0,250,0,0
prep,303,303,0,64673.829,0.989,0.060,-0.037,0.126,1115,0,417,1723,3797,753,429,608,0,0.000,1,0,0.525,0.015,-0.140,0.080,-0.500,-0.058,-0.128,0.994,-0.006,0.014,0.008,0.000,0.000,0.000,0.000,0,0,0,0,7,255,0,250,0,0
prep,303,303,0,64678.829,0.989,0.060,-0.037,0.126,1115,0,410,1719,3790,751,439,617,0,0.000,1,0,0.520,0.014,-0.020,0.140,-0.500,-0.054,-0.131,0.992,-0.002,0.014,-0.002,0.000,0.000,0.000,0.000,0,0,0,0,7,255,0,250,0,0
prep,336,336,0,64683.829,0.989,0.060,-0.037,0.126,1115,0,412,1719,3795,749,437,617,0,0.000,1,0,0.128,0.027,-0.080,0.080,-0.060,-0.055,-0.131,0.993,0.016,-0.022,0.000,0.000,0.000,0.000,0.000,0,0,0,0,7,255,0,250,0,0
prep,336,336,0,64688.830,0.989,0.060,-0.037,0.126,1115,0,411,1725,3783,750,439,617,0,0.000,1,0,0.268,0.027,-0.260,0.020,0.060,-0.057,-0.129,0.995,0.016,-0.022,0.000,0.000,0.000,0.000,0.000,0,0,0,0,7,255,0,250,0,0
prep,336,336,0,64693.829,0.989,0.060,-0.037,0.126,1117,0,411,1719,3793,755,437,616,0,0.000,1,0,0.272,0.004,-0.260,0.080,0.000,-0.059,-0.129,0.991,0.004,-0.002,0.000,0.000,0.000,0.000,0.000,0,0,0,0,7,255,0,250,0,0
prep,336,336,0,64698.829,0.989,0.060,-0.037,0.126,1113,0,411,1725,3784,753,435,615,0,0.000,1,0,0.332,0.012,-0.020,0.140,-0.300,-0.059,-0.129,0.992,-0.012,0.000,-0.010,0.000,0.000,0.000,0.000,0,0,0,0,7,255,0,250,0,0
prep,336,336,0,64703.829,0.989,0.060,-0.037,0.126,1121,0,415,1723,3797,755,431,614,0,0.000,1,0,0.254,0.012,-0.020,0.080,-0.240,-0.058,-0.130,0.993,-0.012,-0.002,-0.010,0.000,0.000,0.000,0.000,0,0,0,0,7,255,0,250,0,0
prep,336,336,0,64708.829,0.989,0.060,-0.037,0.126,1113,0,412,1719,3788,748,439,615,0,0.000,1,0,0.201,0.007,-0.080,0.140,-0.120,-0.056,-0.130,0.992,-0.004,-0.006,-0.010,0.000,0.000,0.000,0.000,0,0,0,0,7,255,0,250,0,0
prep,352,352,0,64713.829,0.989,0.060,-0.037,0.126,1115,0,417,1719,3793,756,434,608,0,0.000,1,0,0.113,0.007,-0.080,0.080,0.000,-0.059,-0.129,0.995,-0.004,-0.006,0.000,0.000,0.000,0.000,0.000,0,0,0,0,7,255,0,250,0,0
prep,352,352,0,64718.829,0.989,0.060,-0.037,0.126,1117,0,415,1725,3795,751,432,611,0,0.000,1,0,0.172,0.011,-0.140,0.080,-0.060,-0.059,-0.130,0.993,-0.010,-0.004,-0.004,0.000,0.000,0.000,0.000,0,0,0,0,7,255,0,250,0,0
prep,353,353,0,64723.829,0.989,0.060,-0.037,0.126,1113,0,415,1725,3787,750,437,613,0,0.000,1,0,0.213,0.015,-0.080,0.080,-0.180,-0.059,-0.130,0.992,-0.014,-0.004,-0.004,0.000,0.000,0.000,0.000,0,0,0,0,7,255,0,250,0,0
prep,353,353,0,64728.829,0.989,0.060,-0.037,0.126,1123,0,419,1726,3795,757,431,611,0,0.000,1,0,0.279,0.015,-0.020,0.140,-0.240,-0.058,-0.128,0.994,-0.014,-0.004,-0.004,0.000,0.000,0.000,0.000,0,0,0,0,7,255,0,250,0,0
prep,368,368,0,64733.829,0.989,0.060,-0.037,0.126,1119,0,416,1723,3799,748,435,611,0,0.000,1,0,0.146,0.006,-0.020,0.080,-0.120,-0.057,-0.129,0.993,-0.004,-0.004,0.000,0.000,0.000,0.000,0.000,0,0,0,0,7,255,0,250,0,0
prep,368,368,0,64738.829,0.989,0.060,-0.037,0.127,1113,0,413,1721,3800,750,431,610,0,0.000,1,0,0.165,0.004,-0.080,0.080,-0.120,-0.058,-0.129,0.994,-0.004,0.000,0.004,0.000,0.000,0.000,0.000,0,0,0,0,7,255,0,250,0,0
prep,383,383,0,64743.829,0.989,0.060,-0.037,0.127,1114,0,411,1721,3783,756,436,617,0,0.000,1,0,0.154,0.007,-0.140,0.020,-0.060,-0.058,-0.130,0.994,-0.006,-0.004,0.004,0.000,0.000,0.000,0.000,0,0,0,0,7,255,0,250,0,0
prep,383,383,0,64748.829,0.989,0.060,-0.037,0.127,1121,0,417,1716,3799,752,431,615,0,0.000,1,0,0.128,0.010,-0.020,-0.040,-0.120,-0.058,-0.130,0.993,-0.008,-0.006,0.004,0.000,0.000,0.000,0.000,0,0,0,0,7,255,0,250,0,0
prep,383,383,0,64753.829,0.989,0.060,-0.037,0.127,1118,0,418,1724,3795,759,435,616,0,0.000,1,0,0.123,0.011,-0.020,0.020,-0.120,-0.057,-0.130,0.993,-0.008,-0.008,0.000,0.000,0.000,0.000,0.000,0,0,0,0,7,255,0,250,0,0
prep,383,383,0,64758.829,0.989,0.060,-0.037,0.127,1115,0,411,1719,3785,751,431,617,0,0.000,1,0,0.182,0.006,-0.020,0.020,-0.180,-0.058,-0.130,0.994,-0.002,-0.006,0.000,0.000,0.000,0.000,0.000,0,0,0,0,7,255,0,250,0,0
prep,383,383,0,64763.829,0.989,0.060,-0.037,0.127,1121,0,413,1717,3783,748,432,617,0,0.000,1,0,0.140,0.006,0.060,-0.040,-0.120,-0.058,-0.129,0.993,-0.002,-0.006,0.000,0.000,0.000,0.000,0.000,0,0,0,0,7,255,0,250,0,0
prep,400,400,0,64768.829,0.989,0.060,-0.037,0.127,1109,0,405,1707,3795,747,428,604,0,0.000,1,0,0.146,0.006,-0.080,0.020,-0.120,-0.058,-0.129,0.994,-0.006,0.000,0.010,0.000,0.000,0.000,0.000,0,0,0,0,7,255,0,250,0,0
prep,400,400,0,64773.829,0.989,0.060,-0.037,0.127,1113,0,413,1721,3789,751,431,619,0,0.000,1,0,0.123,0.006,-0.020,0.020,-0.120,-0.058,-0.130,0.993,-0.006,0.000,0.000,0.000,0.000,0.000,0.000,0,0,0,0,7,255,0,250,0,0
prep,432,432,0,64778.829,0.989,0.060,-0.037,0.127,1103,0,411,1701,3805,749,429,605,0,0.000,1,0,0.087,0.006,0.060,0.020,-0.060,-0.058,-0.129,0.993,-0.006,0.000,-0.004,0.000,0.000,0.000,0.000,0,0,0,0,7,255,0,250,0,0
prep,432,432,0,64783.829,0.989,0.060,-0.037,0.127,1121,0,419,1721,3805,749,429,616,0,0.000,1,0,0.102,0.007,-0.020,0.080,-0.060,-0.057,-0.130,0.992,-0.004,-0.006,-0.006,0.000,0.000,0.000,0.000,0,0,0,0,7,255,0,250,0,0
prep,432,432,0,64788.830,0.989,0.060,-0.037,0.127,1107,0,410,1711,3803,745,429,614,0,0.000,1,0,0.066,0.003,-0.020,0.020,-0.060,-0.058,-0.129,0.992,-0.002,-0.002,-0.010,0.000,0.000,0.000,0.000,0,0,0,0,7,255,0,250,0,0
prep,432,432,0,64793.829,0.989,0.060,-0.037,0.127,1112,0,413,1724,3803,747,431,611,0,0.000,1,0,0.102,0.010,-0.080,0.020,-0.060,-0.058,-0.130,0.993,-0.002,-0.010,-0.010,0.000,0.000,0.000,0.000,0,0,0,0,7,255,0,250,0,0
prep,432,432,0,64798.829,0.989,0.060,-0.037,0.127,1111,0,411,1703,3802,744,425,605,0,0.000,1,0,0.141,0.010,-0.140,0.020,0.000,-0.057,-0.131,0.993,-0.002,-0.010,-0.004,0.000,0.000,0.000,0.000,0,0,0,0,7,255,0,250,0,0
prep,432,432,0,64803.829,0.989,0.060,-0.037,0.127,1119,0,411,1716,3787,757,435,618,0,0.000,1,0,0.102,0.015,-0.080,0.020,0.060,-0.058,-0.131,0.992,-0.004,-0.014,-0.004,0.000,0.000,0.000,0.000,0,0,0,0,7,255,0,250,0,0
prep,463,463,0,64808.829,0.989,0.060,-0.037,0.127,1113,0,411,1719,3787,749,435,619,0,0.000,1,0,0.075,0.017,-0.020,-0.040,-0.060,-0.059,-0.130,0.994,-0.010,-0.014,-0.004,0.000,0.000,0.000,0.000,0,0,0,0,7,255,0,250,0,0
prep,463,463,0,64813.829,0.989,0.060,-0.037,0.127,1117,0,414,1731,3788,752,437,613,0,0.000,1,0,0.045,0.013,-0.020,-0.040,0.000,-0.058,-0.130,0.994,-0.010,-0.008,0.006,0.000,0.000,0.000,0.000,0,0,0,0,7,255,0,250,0,0
prep,463,463,0,64818.829,0.989,0.060,-0.037,0.127,1103,0,405,1705,3785,755,424,605,0,0.000,1,0,0.045,0.009,-0.020,-0.040,0.000,-0.058,-0.130,0.994,-0.008,-0.004,0.006,0.000,0.000,0.000,0.000,0,0,0,0,7,255,0,250,0,0
prep,463,463,0,64823.829,0.989,0.060,-0.037,0.127,1112,0,419,1715,3799,757,430,615,0,0.000,1,0,0.131,0.007,0.060,-0.100,0.060,-0.058,-0.129,0.993,-0.006,-0.004,0.006,0.000,0.000,0.000,0.000,0,0,0,0,7,255,0,250,0,0
prep,463,463,0,64828.829,0.989,0.060,-0.037,0.127,1123,0,411,1717,3802,755,430,614,0,0.000,1,0,0.075,0.006,-0.020,-0.040,0.060,-0.057,-0.129,0.994,-0.006,0.000,0.004,0.000,0.000,0.000,0.000,0,0,0,0,7,255,0,250,0,0
prep,463,463,0,64833.829,0.989,0.060,-0.037,0.127,1117,0,419,1717,3793,755,430,617,0,0.000,1,0,0.117,0.002,0.060,-0.100,0.000,-0.058,-0.129,0.994,0.000,0.002,0.004,0.000,0.000,0.000,0.000,0,0,0,0,7,255,0,250,0,0
prep,480,480,0,64838.829,0.989,0.060,-0.037,0.127,1119,0,417,1723,3799,755,429,615,0,0.000,1,0,0.131,0.003,0.060,-0.100,0.060,-0.057,-0.130,0.993,0.002,0.002,0.004,0.000,0.000,0.000,0.000,0,0,0,0,7,255,0,250,0,0
prep,480,480,0,64843.829,0.989,0.060,-0.037,0.127,1125,0,416,1723,3787,759,435,614,0,0.000,1,0,0.072,0.006,0.060,-0.040,0.000,-0.057,-0.131,0.993,0.000,-0.006,0.002,0.000,0.000,0.000,0.000,0,0,0,0,7,255,0,250,0,0
prep,480,480,0,64848.829,0.989,0.060,-0.037,0.127,1123,0,412,1725,3797,755,431,614,0,0.000,1,0,0.140,0.014,0.120,-0.040,0.060,-0.058,-0.131,0.994,0.000,-0.014,0.002,0.000,0.000,0.000,0.000,0,0,0,0,7,255,0,250,0,0
prep,480,480,0,64853.829,0.989,0.060,-0.037,0.127,1115,0,419,1721,3795,752,433,613,0,0.000,1,0,0.131,0.015,0.060,-0.100,0.060,-0.058,-0.131,0.993,-0.004,-0.014,0.002,0.000,0.000,0.000,0.000,0,0,0,0,7,255,0,250,0,0
prep,497,497,0,64858.829,0.989,0.060,-0.037,0.127,1117,0,413,1721,3795,749,429,615,0,0.000,1,0,0.094,0.015,0.060,-0.040,0.060,-0.057,-0.130,0.994,-0.004,-0.014,0.006,0.000,0.000,0.000,0.000,0,0,0,0,7,255,0,250,0,0
prep,497,497,0,64863.829,0.989,0.060,-0.037,0.127,1113,0,414,1719,3786,755,437,617,0,0.000,1,0,0.094,0.010,0.060,-0.040,0.060,-0.056,-0.129,0.993,0.008,-0.006,0.002,0.000,0.000,0.000,0.000,0,0,0,0,7,255,0,250,0,0
prep,497,497,0,64868.829,0.989,0.060,-0.037,0.127,1117,0,419,1720,3793,748,431,619,0,0.000,1,0,0.140,0.009,0.120,-0.040,0.060,-0.057,-0.129,0.993,0.008,-0.004,0.000,0.000,0.000,0.000,0.000,0,0,0,0,7,255,0,250,0,0
prep,497,497,0,64873.829,0.989,0.060,-0.037,0.127,1115,0,412,1722,3791,751,431,619,0,0.000,1,0,0.094,0.003,0.060,-0.040,0.060,-0.059,-0.130,0.994,0.002,-0.002,0.000,0.000,0.000,0.000,0.000,0,0,0,0,7,255,0,250,0,0
prep,544,544,0,64878.829,0.989,0.060,-0.037,0.127,1115,0,419,1725,3789,756,435,617,0,0.000,1,0,0.167,0.003,0.120,-0.100,0.060,-0.057,-0.129,0.993,0.002,-0.002,0.000,0.000,0.000,0.000,0.000,0,0,0,0,7,255,0,250,0,0
prep,544,544,0,64883.829,0.989,0.060,-0.037,0.127,1114,0,415,1721,3791,750,435,617,0,0.000,1,0,0.140,0.004,0.060,-0.040,0.120,-0.057,-0.129,0.994,0.004,0.002,0.002,0.000,0.000,0.000,0.000,0,0,0,0,7,255,0,250,0,0
prep,544,544,0,64888.829,0.989,0.060,-0.037,0.127,1119,0,419,1734,3789,752,431,616,0,0.000,1,0,0.197,0.004,0.120,-0.100,0.120,-0.059,-0.129,0.994,0.004,0.002,0.002,0.000,0.000,0.000,0.000,0,0,0,0,7,255,0,250,0,0
prep,544,544,0,64893.829,0.989,0.060,-0.037,0.127,1115,0,413,1725,3787,752,434,619,0,0.000,1,0,0.167,0.012,0.060,-0.100,0.120,-0.059,-0.130,0.993,-0.012,0.002,0.002,0.000,0.000,0.000,0.000,0,0,0,0,7,255,0,250,0,0
prep,544,544,0,64898.829,0.989,0.060,-0.037,0.127,1114,0,415,1721,3791,751,437,617,0,0.000,1,0,0.094,0.012,0.060,-0.040,0.060,-0.058,-0.129,0.994,-0.012,0.002,0.004,0.000,0.000,0.000,0.000,0,0,0,0,7,255,0,250,0,0
prep,544,544,0,64903.829,0.989,0.060,-0.037,0.127,1112,0,413,1706,3813,757,428,611,0,0.000,1,0,0.118,0.006,-0.020,-0.100,0.060,-0.058,-0.129,0.994,-0.006,0.002,0.004,0.000,0.000,0.000,0.000,0,0,0,0,7,255,0,250,0,0
prep,544,544,0,64908.829,0.989,0.060,-0.037,0.127,1115,0,413,1721,3791,755,436,619,0,0.000,1,0,0.181,0.006,0.060,-0.160,0.060,-0.057,-0.130,0.995,-0.006,0.002,0.004,0.000,0.000,0.000,0.000,0,0,0,0,7,255,0,250,0,0
prep,564,564,0,64913.829,0.989,0.060,-0.037,0.127,1113,0,409,1709,3797,748,425,615,0,0.000,1,0,0.118,0.004,-0.020,-0.100,0.060,-0.057,-0.130,0.993,0.002,-0.004,0.004,0.000,0.000,0.000,0.000,0,0,0,0,7,255,0,250,0,0
prep,564,564,0,64918.829,0.989,0.060,-0.037,0.127,1113,0,415,1727,3802,757,429,615,0,0.000,1,0,0.140,0.006,0.060,-0.040,0.120,-0.057,-0.129,0.993,0.004,-0.004,0.000,0.000,0.000,0.000,0.000,0,0,0,0,7,255,0,250,0,0
prep,564,564,0,64923.829,0.989,0.060,-0.037,0.127,1084,0,418,1715,3786,745,432,612,0,0.000,1,0,0.075,0.003,-0.020,-0.040,0.060,-0.058,-0.129,0.992,0.002,-0.002,-0.002,0.000,0.000,0.000,0.000,0,0,0,0,7,255,0,250,0,0
prep,564,564,0,64928.829,0.989,0.060,-0.037,0.127,1117,0,413,1715,3796,755,436,619,0,0.000,1,0,0.094,0.004,0.060,-0.040,0.060,-0.057,-0.128,0.993,0.004,0.000,-0.002,0.000,0.000,0.000,0.000,0,0,0,0,7,255,0,250,0,0
prep,564,564,0,64933.829,0.989,0.060,-0.037,0.127,1107,0,411,1707,3801,749,425,611,0,0.000,1,0,0.140,0.004,0.060,-0.040,0.120,-0.058,-0.129,0.993,0.000,0.004,-0.002,0.000,0.000,0.000,0.000,0,0,0,0,7,255,0,250,0,0
prep,564,564,0,64938.829,0.989,0.060,-0.037,0.127,1107,0,409,1707,3788,758,425,611,0,0.000,1,0,0.197,0.006,0.120,-0.100,0.120,-0.059,-0.129,0.992,0.000,0.006,-0.002,0.000,0.000,0.000,0.000,0,0,0,0,7,255,0,250,0,0
prep,576,576,0,64943.829,0.989,0.060,-0.037,0.127,1111,0,407,1707,3805,749,429,613,0,0.000,1,0,0.174,0.004,0.120,-0.040,0.120,-0.058,-0.129,0.994,0.000,0.004,-0.002,0.000,0.000,0.000,0.000,0,0,0,0,7,255,0,250,0,0
prep,576,576,0,64948.829,0.989,0.060,-0.037,0.127,1123,0,413,1721,3801,756,432,621,0,0.000,1,0,0.140,0.004,0.120,-0.040,0.060,-0.057,-0.129,0.993,0.000,0.004,-0.002,0.000,0.000,0.000,0.000,0,0,0,0,7,255,0,250,0,0
prep,592,592,0,64953.829,0.989,0.060,-0.037,0.127,1109,0,417,1719,3807,754,429,619,0,0.000,1,0,0.087,0.000,0.060,0.020,0.060,-0.058,-0.129,0.994,0.000,0.000,0.004,0.000,0.000,0.000,0.000,0,0,0,0,7,255,0,250,0,0
prep,592,592,0,64958.829,0.989,0.060,-0.037,0.127,1085,0,416,1716,3798,758,435,617,0,0.000,1,0,0.094,0.004,0.060,-0.040,0.060,-0.057,-0.128,0.993,0.004,0.000,-0.002,0.000,0.000,0.000,0.000,0,0,0,0,7,255,0,250,0,0
prep,592,592,0,64963.829,0.989,0.060,-0.037,0.127,1108,0,413,1715,3802,755,429,616,0,0.000,1,0,0.140,0.006,0.060,-0.040,0.120,-0.057,-0.129,0.994,0.006,0.000,0.004,0.000,0.000,0.000,0.000,0,0,0,0,7,255,0,250,0,0
prep,592,592,0,64968.829,0.989,0.060,-0.037,0.127,1111,0,417,1717,3787,755,432,621,0,0.000,1,0,0.123,0.012,-0.020,0.020,0.120,-0.058,-0.128,0.994,0.006,0.010,0.004,0.000,0.000,0.000,0.000,0,0,0,0,7,255,0,250,0,0
prep,608,608,0,64973.829,0.989,0.060,-0.037,0.127,1107,0,410,1707,3797,755,424,613,0,0.000,1,0,0.087,0.002,0.060,0.020,0.060,-0.058,-0.129,0.994,-0.002,0.000,0.004,0.000,0.000,0.000,0.000,0,0,0,0,7,255,0,250,0,0
prep,608,608,0,64978.829,0.989,0.060,-0.037,0.127,1115,0,414,1723,3788,755,435,619,0,0.000,1,0,0.066,0.002,-0.020,0.020,0.060,-0.058,-0.129,0.994,-0.002,0.000,0.004,0.000,0.000,0.000,0.000,0,0,0,0,7,255,0,250,0,0
prep,639,639,0,64983.829,0.989,0.060,-0.037,0.127,1104,0,409,1709,3807,747,424,612,0,0.000,1,0,0.075,0.002,-0.020,-0.040,0.060,-0.056,-0.130,0.992,-0.002,0.000,0.004,0.000,0.000,0.000,0.000,0,0,0,0,7,255,0,250,0,0
prep,639,639,0,64988.830,0.989,0.060,-0.037,0.127,1115,0,419,1713,3804,759,435,617,0,0.000,1,0,0.123,0.000,-0.020,0.020,0.120,-0.058,-0.129,0.994,0.000,0.000,0.004,0.000,0.000,0.000,0.000,0,0,0,0,7,255,0,250,0,0
prep,639,639,0,64993.829,0.989,0.060,-0.037,0.127,1109,0,407,1707,3800,747,430,608,0,0.000,1,0,0.028,0.000,-0.020,0.020,0.000,-0.058,-0.129,0.994,0.000,0.000,0.004,0.000,0.000,0.000,0.000,0,0,0,0,7,255,0,250,0,0
prep,639,639,0,64998.829,0.989,0.060,-0.037,0.127,1115,0,411,1723,3789,759,437,622,0,0.000,1,0,0.087,0.004,0.060,0.020,0.060,-0.057,-0.129,0.994,0.000,0.004,0.008,0.000,0.000,0.000,0.000,0,0,0,0,7,255,0,250,0,0
prep,655,655,0,65003.829,0.989,0.060,-0.037,0.127,1111,0,413,1715,3797,751,427,613,0,0.000,1,0,0.072,0.004,0.060,-0.040,0.000,-0.057,-0.130,0.995,0.004,0.000,0.008,0.000,0.000,0.000,0.000,0,0,0,0,7,255,0,250,0,0
prep,655,655,0,65008.829,0.989,0.060,-0.037,0.127,1113,0,414,1733,3787,759,436,619,0,0.000,1,0,0.063,0.007,0.060,0.020,0.000,-0.057,-0.128,0.995,0.006,0.004,0.012,0.000,0.000,0.000,0.000,0,0,0,0,7,255,0,250,0,0
prep,655,655,0,65013.829,0.989,0.060,-0.037,0.127,1111,0,411,1715,3801,752,428,617,0,0.000,1,0,0.087,0.008,0.060,0.020,0.060,-0.057,-0.128,0.993,0.006,0.006,0.012,0.000,0.000,0.000,0.000,0,0,0,0,7,255,0,250,0,0
prep,655,655,0,65018.829,0.989,0.060,-0.037,0.127,1115,0,413,1712,3793,759,438,623,0,0.000,1,0,0.066,0.008,-0.020,0.020,0.060,-0.058,-0.129,0.993,0.006,0.006,-0.002,0.000,0.000,0.000,0.000,0,0,0,0,7,255,0,250,0,0
prep,655,655,0,65023.829,0.989,0.060,-0.037,0.127,1108,0,407,1705,3803,754,431,607,0,0.000,1,0,0.087,0.003,0.060,0.020,0.060,-0.058,-0.130,0.994,-0.002,-0.002,-0.002,0.000,0.000,0.000,0.000,0,0,0,0,7,255,0,250,0,0
prep,655,655,0,65028.829,0.989,0.060,-0.037,0.127,1116,0,419,1725,3799,759,435,617,0,0.000,1,0,0.082,0.004,-0.080,0.020,0.000,-0.057,-0.129,0.993,-0.002,-0.004,-0.002,0.000,0.000,0.000,0.000,0,0,0,0,7,255,0,250,0,0
prep,671,671,0,65033.829,0.989,0.060,-0.037,0.127,1107,0,413,1711,3800,746,431,615,0,0.000,1,0,0.128,0.007,-0.080,0.080,0.060,-0.059,-0.130,0.993,-0.006,-0.004,0.000,0.000,0.000,0.000,0.000,0,0,0,0,7,255,0,250,0,0
prep,671,671,0,65038.829,0.989,0.060,-0.037,0.127,1118,0,419,1719,3799,761,432,623,0,0.000,1,0,0.066,0.007,-0.020,0.020,0.060,-0.058,-0.129,0.994,-0.006,-0.004,0.000,0.000,0.000,0.000,0.000,0,0,0,0,7,255,0,250,0,0
prep,671,671,0,65043.829,0.989,0.060,-0.037,0.127,1102,0,411,1715,3799,755,426,608,0,0.000,1,0,0.146,0.006,-0.080,0.020,0.120,-0.058,-0.129,0.995,-0.006,0.000,0.004,0.000,0.000,0.000,0.000,0,0,0,0,7,255,0,250,0,0
prep,688,688,0,65048.829,0.989,0.060,-0.037,0.127,1117,0,411,1717,3797,755,429,617,0,0.000,1,0,0.020,0.004,0.000,0.020,0.000,-0.058,-0.129,0.994,-0.004,0.002,0.004,0.000,0.000,0.000,0.000,0,0,0,0,7,255,0,250,0,0
prep,688,688,0,65053.829,0.989,0.060,-0.037,0.127,1111,0,411,1715,3801,755,429,615,0,0.000,1,0,0.072,0.002,0.000,-0.040,-0.060,-0.058,-0.129,0.994,0.000,0.002,0.008,0.000,0.000,0.000,0.000,0,0,0,0,7,255,0,250,0,0
prep,688,688,0,65058.829,0.989,0.060,-0.037,0.127,1117,0,419,1723,3805,758,434,623,0,0.000,1,0,0.102,0.002,-0.080,0.020,-0.060,-0.059,-0.129,0.994,0.000,0.002,0.008,0.000,0.000,0.000,0.000,0,0,0,0,7,255,0,250,0,0
prep,703,703,0,65063.829,0.989,0.060,-0.037,0.127,1103,0,409,1706,3800,749,429,615,0,0.000,1,0,0.020,0.000,0.000,0.020,0.000,-0.057,-0.129,0.996,0.000,0.000,0.008,0.000,0.000,0.000,0.000,0,0,0,0,7,255,0,250,0,0
prep,703,703,0,65068.829,0.989,0.060,-0.037,0.127,1117,0,419,1732,3795,760,431,616,0,0.000,1,0,0.063,0.002,0.060,0.020,0.000,-0.058,-0.129,0.994,0.000,0.002,0.008,0.000,0.000,0.000,0.000,0,0,0,0,7,255,0,250,0,0
prep,703,703,0,65073.829,0.989,0.060,-0.037,0.127,1103,0,409,1706,3795,753,427,611,0,0.000,1,0,0.020,0.000,0.000,0.020,0.000,-0.058,-0.129,0.993,0.000,0.000,0.002,0.000,0.000,0.000,0.000,0,0,0,0,7,255,0,250,0,0
prep,703,703,0,65078.829,0.989,0.060,-0.037,0.127,1112,0,419,1721,3799,760,430,618,0,0.000,1,0,0.040,0.006,0.000,-0.040,0.000,-0.058,-0.130,0.993,-0.006,0.000,0.000,0.000,0.000,0.000,0.000,0,0,0,0,7,255,0,250,0,0
prep,735,735,0,65083.829,0.989,0.060,-0.037,0.127,1113,0,411,1719,3790,757,434,619,0,0.000,1,0,0.020,0.008,0.000,0.020,0.000,-0.058,-0.130,0.994,-0.006,-0.006,0.000,0.000,0.000,0.000,0.000,0,0,0,0,7,255,0,250,0,0
prep,735,735,0,65088.830,0.989,0.060,-0.037,0.127,1112,0,421,1727,3803,756,429,615,0,0.000,1,0,0.072,0.008,0.000,-0.040,-0.060,-0.058,-0.129,0.993,-0.006,-0.006,0.000,0.000,0.000,0.000,0.000,0,0,0,0,7,255,0,250,0,0
prep,735,735,0,65093.829,0.989,0.060,-0.037,0.127,1102,0,416,1719,3792,751,430,617,0,0.000,1,0,0.063,0.006,0.000,0.020,0.060,-0.057,-0.130,0.993,-0.002,-0.006,-0.002,0.000,0.000,0.000,0.000,0,0,0,0,7,255,0,250,0,0
prep,735,735,0,65098.829,0.989,0.060,-0.037,0.127,1113,0,411,1719,3783,758,432,617,0,0.000,1,0,0.020,0.006,0.000,0.020,0.000,-0.057,-0.130,0.993,0.002,-0.006,-0.006,0.000,0.000,0.000,0.000,0,0,0,0,7,255,0,250,0,0
prep,735,735,0,65103.831,0.989,0.060,-0.037,0.127,1117,0,412,1717,3789,750,435,625,0,0.000,1,0,0.040,0.006,0.000,-0.040,0.000,-0.059,-0.130,0.992,0.002,-0.006,-0.006,0.000,0.000,0.000,0.000,0,0,0,0,7,255,0,250,0,0
prep,735,735,0,65108.829,0.989,0.060,-0.037,0.127,1115,0,412,1717,3787,757,427,622,0,0.000,1,0,0.072,0.007,0.000,-0.040,-0.060,-0.058,-0.129,0.993,-0.006,-0.004,-0.006,0.000,0.000,0.000,0.000,0,0,0,0,7,255,0,250,0,0
prep,751,751,0,65113.829,0.989,0.060,-0.037,0.127,1113,0,412,1723,3800,750,435,623,0,0.000,1,0,0.094,0.012,0.060,-0.040,-0.060,-0.059,-0.130,0.994,-0.012,-0.002,-0.002,0.000,0.000,0.000,0.000,0,0,0,0,7,255,0,250,0,0
prep,751,751,0,65118.829,0.989,0.060,-0.037,0.127,1098,0,408,1703,3780,747,423,611,0,0.000,1,0,0.040,0.010,0.000,-0.040,0.000,-0.059,-0.129,0.993,-0.010,0.000,-0.002,0.000,0.000,0.000,0.000,0,0,0,0,7,255,0,250,0,0
prep,751,751,0,65123.829,0.989,0.060,-0.037,0.127,1107,0,416,1719,3800,756,435,618,0,0.000,1,0,0.063,0.011,0.000,0.020,-0.060,-0.058,-0.129,0.993,-0.010,0.004,-0.002,0.000,0.000,0.000,0.000,0,0,0,0,7,255,0,250,0,0
prep,751,751,0,65128.829,0.989,0.060,-0.037,0.127,1111,0,417,1719,3803,760,431,623,0,0.000,1,0,0.063,0.004,0.000,0.020,-0.060,-0.057,-0.129,0.993,0.000,0.004,-0.002,0.000,0.000,0.000,0.000,0,0,0,0,7,255,0,250,0,0
prep,768,768,0,65133.829,0.989,0.060,-0.037,0.127,1111,0,421,1733,3797,757,429,618,0,0.000,1,0,0.072,0.002,0.060,-0.040,0.000,-0.058,-0.130,0.993,0.000,-0.002,-0.006,0.000,0.000,0.000,0.000,0,0,0,0,7,255,0,250,0,0
prep,768,768,0,65138.830,0.989,0.060,-0.037,0.127,1110,0,411,1717,3785,760,435,623,0,0.000,1,0,0.089,0.006,-0.080,-0.040,0.000,-0.058,-0.129,0.994,-0.006,-0.002,-0.002,0.000,0.000,0.000,0.000,0,0,0,0,7,255,0,250,0,0
prep,784,784,0,65143.829,0.989,0.060,-0.037,0.127,1115,0,411,1717,3785,756,436,623,0,0.000,1,0,0.020,0.008,0.000,0.020,0.000,-0.059,-0.130,0.994,-0.008,-0.002,0.004,0.000,0.000,0.000,0.000,0,0,0,0,7,255,0,250,0,0
prep,784,784,0,65148.829,0.989,0.060,-0.037,0.127,1111,0,417,1712,3787,758,432,623,0,0.000,1,0,0.131,0.006,0.060,-0.100,-0.060,-0.057,-0.130,0.994,-0.006,-0.002,0.004,0.000,0.000,0.000,0.000,0,0,0,0,7,255,0,250,0,0
prep,784,784,0,65153.829,0.989,0.060,-0.037,0.127,1111,0,415,1721,3793,751,435,621,0,0.000,1,0,0.063,0.006,0.000,0.020,-0.060,-0.057,-0.130,0.993,0.002,-0.006,0.004,0.000,0.000,0.000,0.000,0,0,0,0,7,255,0,250,0,0
prep,784,784,0,65158.829,0.989,0.060,-0.037,0.127,1115,0,414,1719,3801,760,429,618,0,0.000,1,0,0.063,0.006,0.000,0.020,-0.060,-0.058,-0.129,0.993,0.002,-0.006,0.000,0.000,0.000,0.000,0.000,0,0,0,0,7,255,0,250,0,0
prep,800,800,0,65163.829,0.989,0.060,-0.037,0.127,1115,0,413,1719,3793,755,437,626,0,0.000,1,0,0.063,0.002,0.000,0.020,-0.060,-0.057,-0.128,0.994,0.002,0.000,0.000,0.000,0.000,0.000,0.000,0,0,0,0,7,255,0,250,0,0
prep,800,800,0,65168.829,0.989,0.060,-0.037,0.127,1107,0,411,1719,3789,758,435,622,0,0.000,1,0,0.100,0.006,0.000,0.080,-0.060,-0.056,-0.130,0.992,0.006,0.000,-0.002,0.000,0.000,0.000,0.000,0,0,0,0,7,255,0,250,0,0
prep,815,815,0,65173.829,0.989,0.060,-0.037,0.127,1108,0,416,1723,3801,757,436,619,0,0.000,1,0,0.020,0.011,0.000,0.020,0.000,-0.056,-0.129,0.994,0.010,-0.004,0.002,0.000,0.000,0.000,0.000,0,0,0,0,7,255,0,250,0,0
prep,815,815,0,65178.829,0.989,0.060,-0.037,0.127,1113,0,416,1725,3790,755,435,616,0,0.000,1,0,0.020,0.011,0.000,0.020,0.000,-0.058,-0.129,0.994,0.010,-0.004,0.006,0.000,0.000,0.000,0.000,0,0,0,0,7,255,0,250,0,0
prep,847,847,0,65183.829,0.989,0.060,-0.037,0.127,1113,0,414,1717,3787,755,427,623,0,0.000,1,0,0.072,0.004,0.000,-0.040,-0.060,-0.057,-0.129,0.992,0.004,0.000,0.006,0.000,0.000,0.000,0.000,0,0,0,0,7,255,0,250,0,0
prep,847,847,0,65188.829,0.989,0.060,-0.037,0.127,1111,0,413,1725,3799,761,433,618,0,0.000,1,0,0.020,0.000,0.000,0.020,0.000,-0.058,-0.129,0.994,0.000,0.000,0.004,0.000,0.000,0.000,0.000,0,0,0,0,7,255,0,250,0,0
prep,847,847,0,65193.829,0.989,0.060,-0.037,0.127,1107,0,414,1720,3797,756,437,621,0,0.000,1,0,0.128,0.004,-0.080,0.080,-0.060,-0.057,-0.129,0.994,0.004,0.002,0.002,0.000,0.000,0.000,0.000,0,0,0,0,7,255,0,250,0,0
prep,847,847,0,65198.829,0.989,0.060,-0.037,0.127,1109,0,423,1716,3805,755,435,614,0,0.000,1,0,0.117,0.004,0.060,0.080,-0.060,-0.059,-0.129,0.993,0.000,0.004,0.002,0.000,0.000,0.000,0.000,0,0,0,0,7,255,0,250,0,0
prep,847,847,0,65203.829,0.989,0.060,-0.037,0.127,1109,0,415,1719,3797,751,436,625,0,0.000,1,0,0.063,0.004,0.000,0.020,-0.060,-0.058,-0.129,0.993,0.000,0.004,-0.002,0.000,0.000,0.000,0.000,0,0,0,0,7,255,0,250,0,0
prep,847,847,0,65208.829,0.989,0.060,-0.037,0.127,1115,0,416,1731,3793,759,435,619,0,0.000,1,0,0.100,0.004,0.000,0.080,-0.060,-0.058,-0.130,0.994,-0.002,0.004,-0.002,0.000,0.000,0.000,0.000,0,0,0,0,7,255,0,250,0,0
prep,847,847,0,65213.829,0.989,0.060,-0.037,0.127,1117,0,419,1719,3793,751,439,625,0,0.000,1,0,0.063,0.004,0.000,0.020,-0.060,-0.057,-0.130,0.994,0.000,-0.004,0.004,0.000,0.000,0.000,0.000,0,0,0,0,7,255,0,250,0,0
prep,847,847,0,65218.829,0.989,0.060,-0.037,0.127,1109,0,415,1723,3803,760,429,619,0,0.000,1,0,0.020,0.006,0.000,0.020,0.000,-0.057,-0.130,0.993,0.002,-0.006,0.004,0.000,0.000,0.000,0.000,0,0,0,0,7,255,0,250,0,0
prep,847,847,0,65223.829,0.989,0.060,-0.037,0.127,1097,0,409,1704,3787,753,419,611,0,0.000,1,0,0.080,0.008,0.000,0.080,0.000,-0.057,-0.130,0.993,0.002,-0.008,0.000,0.000,0.000,0.000,0.000,0,0,0,0,7,255,0,250,0,0
prep,847,847,0,65228.829,0.989,0.060,-0.037,0.127,1115,0,417,1704,3795,761,438,625,0,0.000,1,0,0.100,0.006,0.060,0.080,0.000,-0.059,-0.130,0.992,0.002,-0.006,-0.002,0.000,0.000,0.000,0.000,0,0,0,0,7,255,0,250,0,0
prep,864,864,0,65233.829,0.989,0.060,-0.037,0.127,1115,0,413,1719,3797,763,430,619,0,0.000,1,0,0.063,0.010,0.060,0.020,0.000,-0.057,-0.130,0.992,0.000,-0.010,-0.010,0.000,0.000,0.000,0.000,0,0,0,0,7,255,0,250,0,0
prep,864,864,0,65238.830,0.989,0.060,-0.037,0.127,1113,0,415,1717,3786,767,431,625,0,0.000,1,0,0.020,0.006,0.000,0.020,0.000,-0.057,-0.130,0.993,0.000,-0.006,-0.010,0.000,0.000,0.000,0.000,0,0,0,0,7,255,0,250,0,0
prep,879,879,0,65243.829,0.989,0.060,-0.037,0.127,1113,0,411,1717,3785,752,435,625,0,0.000,1,0,0.020,0.006,0.000,0.020,0.000,-0.058,-0.129,0.994,0.000,-0.006,-0.002,0.000,0.000,0.000,0.000,0,0,0,0,7,255,0,250,0,0
prep,879,879,0,65248.829,0.989,0.060,-0.037,0.127,1109,0,413,1721,3785,752,433,622,0,0.000,1,0,0.063,0.006,0.060,0.020,0.000,-0.059,-0.129,0.994,-0.006,0.002,0.004,0.000,0.000,0.000,0.000,0,0,0,0,7,255,0,250,0,0
prep,895,895,0,65253.829,0.989,0.060,-0.037,0.127,1109,0,414,1723,3795,755,439,619,0,0.000,1,0,0.020,0.008,0.000,0.020,0.000,-0.059,-0.130,0.994,-0.008,0.002,0.004,0.000,0.000,0.000,0.000,0,0,0,0,7,255,0,250,0,0
prep,895,895,0,65258.829,0.989,0.060,-0.037,0.127,1109,0,414,1721,3794,760,435,619,0,0.000,1,0,0.087,0.009,0.060,0.020,-0.060,-0.057,-0.129,0.994,-0.008,0.004,0.004,0.000,0.000,0.000,0.000,0,0,0,0,7,255,0,250,0,0
prep,895,895,0,65263.829,0.989,0.060,-0.037,0.127,1115,0,419,1727,3797,758,432,617,0,0.000,1,0,0.020,0.006,0.000,0.020,0.000,-0.057,-0.130,0.994,0.006,-0.002,0.004,0.000,0.000,0.000,0.000,0,0,0,0,7,255,0,250,0,0
prep,895,895,0,65268.829,0.989,0.060,-0.037,0.127,1111,0,419,1725,3797,759,429,621,0,0.000,1,0,0.072,0.008,0.000,-0.040,-0.060,-0.057,-0.130,0.994,0.006,-0.006,0.004,0.000,0.000,0.000,0.000,0,0,0,0,7,255,0,250,0,0
prep,912,912,0,65273.829,0.989,0.060,-0.037,0.127,1115,0,413,1717,3796,759,437,626,0,0.000,1,0,0.063,0.010,0.060,0.020,0.000,-0.057,-0.129,0.994,0.008,-0.006,0.004,0.000,0.000,0.000,0.000,0,0,0,0,7,255,0,250,0,0
prep,912,912,0,65278.829,0.989,0.060,-0.037,0.127,1107,0,414,1719,3797,755,437,625,0,0.000,1,0,0.020,0.003,0.000,0.020,0.000,-0.058,-0.129,0.995,0.002,0.002,0.006,0.000,0.000,0.000,0.000,0,0,0,0,7,255,0,250,0,0
prep,943,943,0,65283.829,0.989,0.060,-0.037,0.127,1113,0,417,1721,3793,749,432,625,0,0.000,1,0,0.063,0.004,0.060,0.020,0.000,-0.057,-0.129,0.993,0.004,0.002,0.006,0.000,0.000,0.000,0.000,0,0,0,0,7,255,0,250,0,0
prep,943,943,0,65288.829,0.989,0.060,-0.037,0.127,1111,0,413,1715,3787,756,437,625,0,0.000,1,0,0.072,0.004,0.060,-0.040,0.000,-0.057,-0.129,0.993,0.004,0.002,-0.006,0.000,0.000,0.000,0.000,0,0,0,0,7,255,0,250,0,0
prep,943,943,0,65293.829,0.989,0.060,-0.037,0.127,1115,0,413,1719,3793,757,437,623,0,0.000,1,0,0.072,0.006,0.060,-0.040,0.000,-0.057,-0.130,0.993,0.004,-0.004,-0.006,0.000,0.000,0.000,0.000,0,0,0,0,7,255,0,250,0,0
prep,943,943,0,65298.829,0.989,0.060,-0.037,0.127,1109,0,411,1717,3795,761,438,626,0,0.000,1,0,0.087,0.006,0.060,0.020,0.060,-0.057,-0.129,0.994,0.004,-0.004,0.000,0.000,0.000,0.000,0.000,0,0,0,0,7,255,0,250,0,0
prep,943,943,0,65303.830,0.989,0.060,-0.037,0.127,1113,0,413,1716,3795,755,437,627,0,0.000,1,0,0.063,0.004,0.060,0.020,0.000,-0.057,-0.129,0.994,0.004,-0.002,0.002,0.000,0.000,0.000,0.000,0,0,0,0,7,255,0,250,0,0
prep,943,943,0,65308.829,0.989,0.060,-0.037,0.127,1114,0,419,1717,3797,760,431,623,0,0.000,1,0,0.094,0.004,0.060,-0.040,0.060,-0.057,-0.130,0.994,0.004,-0.002,0.002,0.000,0.000,0.000,0.000,0,0,0,0,7,255,0,250,0,0
prep,962,962,0,65313.829,0.989,0.060,-0.037,0.127,1115,0,421,1723,3795,758,432,619,0,0.000,1,0,0.087,0.003,0.060,0.020,0.060,-0.059,-0.129,0.994,0.002,-0.002,0.004,0.000,0.000,0.000,0.000,0,0,0,0,7,255,0,250,0,0
prep,962,962,0,65318.829,0.989,0.060,-0.037,0.127,1116,0,411,1718,3786,761,432,619,0,0.000,1,0,0.140,0.004,0.060,-0.040,0.120,-0.058,-0.130,0.993,-0.002,-0.004,0.004,0.000,0.000,0.000,0.000,0,0,0,0,7,255,0,250,0,0
prep,962,962,0,65323.829,0.989,0.060,-0.037,0.127,1108,0,414,1721,3794,757,435,620,0,0.000,1,0,0.072,0.002,0.060,-0.040,0.000,-0.058,-0.129,0.994,-0.002,0.000,0.002,0.000,0.000,0.000,0.000,0,0,0,0,7,255,0,250,0,0
prep,962,962,0,65328.829,0.989,0.060,-0.037,0.127,1111,0,417,1718,3789,759,432,623,0,0.000,1,0,0.063,0.004,0.060,0.020,0.000,-0.057,-0.130,0.993,0.000,-0.004,-0.002,0.000,0.000,0.000,0.000,0,0,0,0,7,255,0,250,0,0
prep,962,962,0,65333.829,0.989,0.060,-0.037,0.127,1115,0,415,1716,3793,759,431,623,0,0.000,1,0,0.045,0.006,-0.020,-0.040,0.000,-0.058,-0.130,0.994,0.000,-0.006,0.002,0.000,0.000,0.000,0.000,0,0,0,0,7,255,0,250,0,0
prep,962,962,0,65338.829,0.989,0.060,-0.037,0.127,1113,0,419,1721,3791,757,431,629,0,0.000,1,0,0.028,0.006,-0.020,0.020,0.000,-0.057,-0.128,0.994,0.002,-0.006,0.004,0.000,0.000,0.000,0.000,0,0,0,0,7,255,0,250,0,0
prep,976,976,0,65343.829,0.989,0.060,-0.037,0.127,1109,0,419,1719,3801,759,431,627,0,0.000,1,0,0.045,0.007,-0.020,-0.040,0.000,-0.058,-0.130,0.992,-0.004,-0.006,0.004,0.000,0.000,0.000,0.000,0,0,0,0,7,255,0,250,0,0
prep,976,976,0,65348.829,0.989,0.060,-0.037,0.127,1111,0,419,1715,3805,761,434,621,0,0.000,1,0,0.028,0.008,-0.020,0.020,0.000,-0.057,-0.130,0.993,0.006,-0.006,-0.002,0.000,0.000,0.000,0.000,0,0,0,0,7,255,0,250,0,0
prep,996,996,0,65353.829,0.989,0.060,-0.037,0.127,1100,0,421,1721,3798,756,434,624,0,0.000,1,0,0.102,0.007,-0.080,0.020,0.060,-0.057,-0.129,0.993,0.004,-0.006,-0.002,0.000,0.000,0.000,0.000,0,0,0,0,7,255,0,250,0,0
prep,996,996,0,65358.829,0.989,0.060,-0.037,0.127,1111,0,415,1716,3791,757,437,625,0,0.000,1,0,0.087,0.006,0.060,0.020,0.060,-0.057,-0.129,0.994,0.006,-0.002,-0.002,0.000,0.000,0.000,0.000,0,0,0,0,7,255,0,250,0,0
prep,996,996,0,65363.829,0.989,0.060,-0.037,0.127,1115,0,421,1719,3803,757,433,622,0,0.000,1,0,0.028,0.004,-0.020,0.020,0.000,-0.058,-0.129,0.994,0.004,0.002,0.004,0.000,0.000,0.000,0.000,0,0,0,0,7,255,0,250,0,0
prep,996,996,0,65368.829,0.989,0.060,-0.037,0.127,1107,0,413,1707,3795,749,429,619,0,0.000,1,0,0.087,0.004,0.060,0.020,0.060,-0.058,-0.130,0.994,-0.004,0.002,0.006,0.000,0.000,0.000,0.000,0,0,0,0,7,255,0,250,0,0
prep,1039,1039,0,65373.829,0.989,0.060,-0.037,0.127,1109,0,414,1721,3787,756,437,617,0,0.000,1,0,0.087,0.006,0.060,0.020,0.060,-0.058,-0.130,0.994,-0.006,-0.002,0.004,0.000,0.000,0.000,0.000,0,0,0,0,7,255,0,250,0,0
prep,1039,1039,0,65378.829,0.989,0.060,-0.037,0.127,1109,0,413,1711,3787,759,435,625,0,0.000,1,0,0.045,0.004,-0.020,-0.040,0.000,-0.057,-0.128,0.994,-0.004,-0.002,0.004,0.000,0.000,0.000,0.000,0,0,0,0,7,255,0,250,0,0
prep,1039,1039,0,65383.829,0.989,0.060,-0.037,0.127,1111,0,421,1717,3799,760,430,623,0,0.000,1,0,0.102,0.010,-0.020,-0.100,0.000,-0.059,-0.128,0.994,-0.006,0.008,0.004,0.000,0.000,0.000,0.000,0,0,0,0,7,255,0,250,0,0
prep,1039,1039,0,65388.830,0.989,0.060,-0.037,0.127,1111,0,419,1723,3795,758,435,621,0,0.000,1,0,0.028,0.010,-0.020,0.020,0.000,-0.058,-0.128,0.994,0.002,0.010,0.002,0.000,0.000,0.000,0.000,0,0,0,0,7,255,0,250,0,0
prep,1039,1039,0,65393.829,0.989,0.060,-0.037,0.127,1107,0,415,1717,3796,757,439,623,0,0.000,1,0,0.089,0.010,-0.080,-0.040,0.000,-0.058,-0.130,0.994,-0.002,0.010,0.004,0.000,0.000,0.000,0.000,0,0,0,0,7,255,0,250,0,0
prep,1039,1039,0,65398.829,0.989,0.060,-0.037,0.127,1110,0,413,1716,3794,762,437,627,0,0.000,1,0,0.045,0.003,-0.020,-0.040,0.000,-0.059,-0.129,0.992,-0.002,0.002,0.002,0.000,0.000,0.000,0.000,0,0,0,0,7,255,0,250,0,0
prep,1056,1056,0,65403.829,0.989,0.060,-0.037,0.127,1113,0,421,1721,3804,759,431,627,0,0.000,1,0,0.082,0.004,-0.080,0.020,0.000,-0.057,-0.130,0.994,-0.002,-0.004,0.004,0.000,0.000,0.000,0.000,0,0,0,0,7,255,0,250,0,0
prep,1056,1056,0,65408.829,0.989,0.060,-0.037,0.127,1113,0,421,1704,3793,760,431,620,0,0.000,1,0,0.066,0.006,-0.020,0.020,-0.060,-0.057,-0.130,0.993,0.002,-0.006,-0.006,0.000,0.000,0.000,0.000,0,0,0,0,7,255,0,250,0,0
prep,1056,1056,0,65413.829,0.989,0.060,-0.037,0.127,1108,0,415,1721,3799,752,435,625,0,0.000,1,0,0.066,0.012,-0.020,0.020,-0.060,-0.058,-0.131,0.994,0.002,-0.012,0.004,0.000,0.000,0.000,0.000,0,0,0,0,7,255,0,250,0,0
prep,1056,1056,0,65418.829,0.989,0.060,-0.037,0.127,1097,0,410,1702,3790,749,426,614,0,0.000,1,0,0.136,0.013,0.060,0.020,-0.120,-0.057,-0.129,0.993,0.006,-0.012,-0.006,0.000,0.000,0.000,0.000,0,0,0,0,7,255,0,250,0,0
prep,1056,1056,0,65423.829,0.989,0.060,-0.037,0.127,1115,0,418,1719,3787,751,437,627,0,0.000,1,0,0.136,0.008,0.060,0.020,-0.120,-0.057,-0.128,0.994,0.008,-0.002,0.004,0.000,0.000,0.000,0.000,0,0,0,0,7,255,0,250,0,0
prep,1056,1056,0,65428.829,0.989,0.060,-0.037,0.127,1096,0,409,1711,3796,755,429,614,0,0.000,1,0,0.066,0.008,-0.020,0.020,-0.060,-0.057,-0.129,0.994,0.008,0.000,0.006,0.000,0.000,0.000,0.000,0,0,0,0,7,255,0,250,0,0
prep,1072,1072,0,65433.829,0.989,0.060,-0.037,0.127,1109,0,419,1715,3795,758,431,618,0,0.000,1,0,0.123,0.015,-0.020,0.020,-0.120,-0.058,-0.128,0.994,0.004,0.014,0.006,0.000,0.000,0.000,0.000,0,0,0,0,7,255,0,250,0,0
prep,1072,1072,0,65438.829,0.989,0.060,-0.037,0.127,1108,0,421,1717,3806,756,433,623,0,0.000,1,0,0.102,0.006,-0.020,0.080,-0.060,-0.058,-0.129,0.993,0.002,0.006,0.006,0.000,0.000,0.000,0.000,0,0,0,0,7,255,0,250,0,0
prep,1088,1088,0,65443.829,0.989,0.060,-0.037,0.127,1115,0,421,1719,3795,760,431,625,0,0.000,1,0,0.165,0.006,-0.080,0.080,-0.120,-0.057,-0.129,0.993,0.002,0.006,-0.002,0.000,0.000,0.000,0.000,0,0,0,0,7,255,0,250,0,0
prep,1088,1088,0,65448.829,0.989,0.060,-0.037,0.127,1108,0,415,1722,3787,760,433,627,0,0.000,1,0,0.154,0.006,-0.140,0.020,-0.060,-0.058,-0.128,0.994,-0.002,0.006,-0.002,0.000,0.000,0.000,0.000,0,0,0,0,7,255,0,250,0,0
prep,1088,1088,0,65453.829,0.989,0.060,-0.037,0.127,1109,0,415,1712,3797,752,439,627,0,0.000,1,0,0.128,0.003,-0.080,0.080,-0.060,-0.058,-0.130,0.993,-0.002,0.002,-0.002,0.000,0.000,0.000,0.000,0,0,0,0,7,255,0,250,0,0
prep,1088,1088,0,65458.829,0.989,0.060,-0.037,0.127,1109,0,415,1719,3797,763,436,627,0,0.000,1,0,0.172,0.003,-0.140,0.080,-0.060,-0.057,-0.129,0.993,-0.002,0.002,-0.002,0.000,0.000,0.000,0.000,0,0,0,0,7,255,0,250,0,0
prep,1104,1104,0,65463.829,0.989,0.060,-0.037,0.127,1115,0,419,1716,3790,753,437,627,0,0.000,1,0,0.082,0.004,-0.080,0.020,0.000,-0.058,-0.130,0.994,-0.002,-0.004,-0.002,0.000,0.000,0.000,0.000,0,0,0,0,7,255,0,250,0,0
prep,1104,1104,0,65468.829,0.989,0.060,-0.037,0.127,1108,0,415,1715,3797,757,439,631,0,0.000,1,0,0.113,0.004,-0.080,0.080,0.000,-0.058,-0.130,0.994,-0.002,-0.004,0.004,0.000,0.000,0.000,0.000,0,0,0,0,7,255,0,250,0,0
prep,1104,1104,0,65473.829,0.989,0.060,-0.037,0.127,1113,0,414,1719,3788,755,433,629,0,0.000,1,0,0.102,0.004,-0.080,0.020,-0.060,-0.059,-0.130,0.993,-0.002,-0.004,0.004,0.000,0.000,0.000,0.000,0,0,0,0,7,255,0,250,0,0
prep,1104,1104,0,65478.829,0.989,0.060,-0.037,0.127,1109,0,417,1717,3795,761,435,627,0,0.000,1,0,0.063,0.006,0.000,0.020,-0.060,-0.058,-0.130,0.993,-0.004,-0.004,0.000,0.000,0.000,0.000,0.000,0,0,0,0,7,255,0,250,0,0
prep,1104,1104,0,65483.829,0.989,0.060,-0.037,0.127,1117,0,421,1719,3801,756,431,621,0,0.000,1,0,0.136,0.007,0.060,0.020,-0.120,-0.057,-0.130,0.993,-0.004,-0.006,-0.002,0.000,0.000,0.000,0.000,0,0,0,0,7,255,0,250,0,0
prep,1135,1135,0,65488.830,0.989,0.060,-0.037,0.127,1109,0,413,1705,3814,749,430,619,0,0.000,1,0,0.122,0.007,0.000,0.020,-0.120,-0.058,-0.130,0.993,-0.004,-0.006,-0.002,0.000,0.000,0.000,0.000,0,0,0,0,7,255,0,250,0,0
prep,1135,1135,0,65493.829,0.989,0.060,-0.037,0.127,1117,0,419,1719,3795,758,435,629,0,0.000,1,0,0.122,0.008,0.000,0.020,-0.120,-0.057,-0.130,0.993,0.000,-0.008,-0.002,0.000,0.000,0.000,0.000,0,0,0,0,7,255,0,250,0,0
prep,1135,1135,0,65498.829,0.989,0.060,-0.037,0.127,1117,0,420,1718,3797,755,431,621,0,0.000,1,0,0.126,0.004,0.000,-0.040,-0.120,-0.058,-0.130,0.994,-0.002,-0.004,-0.002,0.000,0.000,0.000,0.000,0,0,0,0,7,255,0,250,0,0
prep,1135,1135,0,65503.829,0.989,0.060,-0.037,0.127,1108,0,423,1726,3803,757,430,619,0,0.000,1,0,0.063,0.004,0.000,0.020,-0.060,-0.058,-0.130,0.993,-0.002,-0.004,-0.002,0.000,0.000,0.000,0.000,0,0,0,0,7,255,0,250,0,0
prep,1135,1135,0,65508.829,0.989,0.060,-0.037,0.127,1103,0,421,1707,3797,755,437,622,0,0.000,1,0,0.087,0.004,0.060,0.020,-0.060,-0.057,-0.130,0.994,-0.002,-0.004,0.004,0.000,0.000,0.000,0.000,0,0,0,0,7,255,0,250,0,0
prep,1135,1135,0,65513.829,0.989,0.060,-0.037,0.127,1117,0,421,1715,3800,759,432,621,0,0.000,1,0,0.020,0.007,0.000,0.020,0.000,-0.058,-0.129,0.993,-0.006,-0.004,-0.002,0.000,0.000,0.000,0.000,0,0,0,0,7,255,0,250,0,0
prep,1151,1151,0,65518.829,0.989,0.060,-0.037,0.127,1117,0,421,1723,3801,761,437,622,0,0.000,1,0,0.063,0.003,0.060,0.020,0.000,-0.057,-0.129,0.992,0.002,-0.002,-0.006,0.000,0.000,0.000,0.000,0,0,0,0,7,255,0,250,0,0
prep,1151,1151,0,65523.829,0.989,0.060,-0.037,0.127,1099,0,409,1703,3789,751,429,613,0,0.000,1,0,0.063,0.000,0.060,0.020,0.000,-0.058,-0.129,0.993,0.000,0.000,-0.006,0.000,0.000,0.000,0.000,0,0,0,0,7,255,0,250,0,0
prep,1167,1167,0,65528.829,0.989,0.060,-0.037,0.127,1117,0,415,1721,3795,757,435,628,0,0.000,1,0,0.094,0.000,0.060,-0.040,-0.060,-0.058,-0.129,0.994,0.000,0.000,-0.002,0.000,0.000,0.000,0.000,0,0,0,0,7,255,0,250,0,0
prep,1167,1167,0,65533.829,0.989,0.060,-0.037,0.127,1111,0,423,1724,3799,759,435,621,0,0.000,1,0,0.020,0.004,0.000,0.020,0.000,-0.058,-0.129,0.994,0.000,0.004,0.002,0.000,0.000,0.000,0.000,0,0,0,0,7,255,0,250,0,0
prep,1167,1167,0,65538.830,0.989,0.060,-0.037,0.127,1111,0,417,1723,3793,759,437,631,0,0.000,1,0,0.020,0.000,0.000,0.020,0.000,-0.057,-0.129,0.994,0.000,0.000,0.002,0.000,0.000,0.000,0.000,0,0,0,0,7,255,0,250,0,0
prep,1167,1167,0,65543.829,0.989,0.060,-0.037,0.127,1113,0,416,1710,3800,763,439,629,0,0.000,1,0,0.072,0.000,0.060,-0.040,0.000,-0.058,-0.129,0.994,0.000,0.000,0.002,0.000,0.000,0.000,0.000,0,0,0,0,7,255,0,250,0,0
prep,1184,1184,0,65548.829,0.989,0.060,-0.037,0.127,1117,0,413,1719,3797,760,437,627,0,0.000,1,0,0.040,0.000,0.000,-0.040,0.000,-0.058,-0.129,0.993,0.000,0.000,0.002,0.000,0.000,0.000,0.000,0,0,0,0,7,255,0,250,0,0
prep,1184,1184,0,65553.829,0.989,0.060,-0.037,0.127,1113,0,419,1720,3787,756,432,629,0,0.000,1,0,0.020,0.002,0.000,0.020,0.000,-0.058,-0.130,0.994,-0.002,0.000,0.002,0.000,0.000,0.000,0.000,0,0,0,0,7,255,0,250,0,0
prep,1200,1200,0,65558.829,0.989,0.060,-0.037,0.127,1115,0,414,1720,3789,758,438,629,0,0.000,1,0,0.063,0.004,0.060,0.020,0.000,-0.058,-0.130,0.994,-0.002,-0.004,0.004,0.000,0.000,0.000,0.000,0,0,0,0,7,255,0,250,0,0
prep,1200,1200,0,65563.829,0.989,0.060,-0.037,0.127,1114,0,414,1721,3793,763,429,628,0,0.000,1,0,0.063,0.004,0.000,0.020,-0.060,-0.058,-0.130,0.992,-0.002,-0.004,0.004,0.000,0.000,0.000,0.000,0,0,0,0,7,255,0,250,0,0
prep,1232,1232,0,65568.829,0.989,0.060,-0.037,0.127,1117,0,423,1733,3795,761,431,620,0,0.000,1,0,0.094,0.004,0.060,-0.040,-0.060,-0.056,-0.128,0.993,-0.002,-0.004,-0.008,0.000,0.000,0.000,0.000,0,0,0,0,7,255,0,250,0,0
prep,1232,1232,0,65573.829,0.989,0.060,-0.037,0.127,1112,0,419,1721,3793,760,437,627,0,0.000,1,0,0.028,0.004,-0.020,0.020,0.000,-0.057,-0.129,0.993,0.004,-0.002,-0.008,0.000,0.000,0.000,0.000,0,0,0,0,7,255,0,250,0,0
prep,1232,1232,0,65578.829,0.989,0.060,-0.037,0.127,1117,0,415,1723,3797,760,438,629,0,0.000,1,0,0.122,0.006,0.120,0.020,0.000,-0.057,-0.130,0.994,0.006,-0.002,-0.002,0.000,0.000,0.000,0.000,0,0,0,0,7,255,0,250,0,0
prep,1232,1232,0,65583.829,0.989,0.060,-0.037,0.127,1121,0,415,1721,3788,759,437,629,0,0.000,1,0,0.063,0.006,0.060,0.020,0.000,-0.058,-0.130,0.993,0.004,-0.004,-0.002,0.000,0.000,0.000,0.000,0,0,0,0,7,255,0,250,0,0
prep,1232,1232,0,65588.829,0.989,0.060,-0.037,0.127,1117,0,424,1723,3809,755,432,628,0,0.000,1,0,0.087,0.007,0.060,0.020,-0.060,-0.057,-0.129,0.993,0.006,-0.004,-0.002,0.000,0.000,0.000,0.000,0,0,0,0,7,255,0,250,0,0
prep,1232,1232,0,65593.829,0.989,0.060,-0.037,0.127,1122,0,419,1723,3797,760,434,630,0,0.000,1,0,0.063,0.004,0.060,0.020,0.000,-0.057,-0.130,0.993,0.002,-0.004,-0.006,0.000,0.000,0.000,0.000,0,0,0,0,7,255,0,250,0,0
prep,1248,1248,0,65598.829,0.989,0.060,-0.037,0.127,1115,0,423,1732,3797,757,431,623,0,0.000,1,0,0.100,0.003,0.060,0.080,0.000,-0.058,-0.129,0.994,0.002,-0.002,-0.006,0.000,0.000,0.000,0.000,0,0,0,0,7,255,0,250,0,0
prep,1248,1248,0,65603.829,0.989,0.060,-0.037,0.127,1121,0,415,1720,3789,762,437,625,0,0.000,1,0,0.100,0.004,0.060,0.080,0.000,-0.058,-0.130,0.994,-0.002,-0.004,0.004,0.000,0.000,0.000,0.000,0,0,0,0,7,255,0,250,0,0
prep,1248,1248,0,65608.829,0.989,0.060,-0.037,0.127,1112,0,423,1733,3801,751,437,621,0,0.000,1,0,0.066,0.006,-0.020,0.020,0.060,-0.059,-0.129,0.994,-0.004,0.004,0.004,0.000,0.000,0.000,0.000,0,0,0,0,7,255,0,250,0,0
prep,1248,1248,0,65613.829,0.989,0.060,-0.037,0.127,1103,0,413,1707,3785,748,424,615,0,0.000,1,0,0.066,0.004,-0.020,0.020,0.060,-0.058,-0.128,0.993,-0.002,0.004,0.004,0.000,0.000,0.000,0.000,0,0,0,0,7,255,0,250,0,0
prep,1248,1248,0,65618.829,0.989,0.060,-0.037,0.127,1110,0,416,1721,3794,757,435,619,0,0.000,1,0,0.102,0.006,-0.080,0.020,0.060,-0.058,-0.129,0.994,0.000,0.006,0.002,0.000,0.000,0.000,0.000,0,0,0,0,7,255,0,250,0,0
prep,1248,1248,0,65623.829,0.989,0.060,-0.037,0.127,1111,0,415,1719,3793,751,427,618,0,0.000,1,0,0.028,0.006,-0.020,0.020,0.000,-0.057,-0.131,0.994,0.000,0.006,0.002,0.000,0.000,0.000,0.000,0,0,0,0,7,255,0,250,0,0
prep,1265,1265,0,65628.830,0.989,0.060,-0.037,0.127,1117,0,416,1720,3793,759,433,627,0,0.000,1,0,0.066,0.004,-0.020,0.020,0.060,-0.058,-0.130,0.993,0.000,-0.004,0.002,0.000,0.000,0.000,0.000,0,0,0,0,7,255,0,250,0,0
prep,1265,1265,0,65633.829,0.989,0.060,-0.037,0.127,1115,0,419,1721,3787,763,437,622,0,0.000,1,0,0.100,0.004,0.060,0.080,0.000,-0.057,-0.129,0.993,0.000,-0.004,-0.002,0.000,0.000,0.000,0.000,0,0,0,0,7,255,0,250,0,0
prep,1279,1279,0,65638.829,0.989,0.060,-0.037,0.127,1115,0,415,1733,3789,756,430,629,0,0.000,1,0,0.028,0.004,-0.020,0.020,0.000,-0.059,-0.131,0.994,-0.002,-0.004,-0.002,0.000,0.000,0.000,0.000,0,0,0,0,7,255,0,250,0,0
prep,1279,1279,0,65643.829,0.989,0.060,-0.037,0.127,1112,0,421,1736,3801,762,437,623,0,0.000,1,0,0.028,0.010,-0.020,0.020,0.000,-0.057,-0.130,0.994,0.002,-0.010,0.006,0.000,0.000,0.000,0.000,0,0,0,0,7,255,0,250,0,0
prep,1279,1279,0,65648.829,0.989,0.060,-0.037,0.127,1113,0,416,1721,3796,751,437,628,0,0.000,1,0,0.136,0.013,0.120,0.020,-0.060,-0.058,-0.130,0.994,-0.008,-0.010,0.006,0.000,0.000,0.000,0.000,0,0,0,0,7,255,0,250,0,0
prep,1279,1279,0,65653.829,0.989,0.060,-0.037,0.127,1107,0,415,1715,3808,749,431,621,0,0.000,1,0,0.156,0.011,0.120,0.080,-0.060,-0.058,-0.130,0.994,-0.008,-0.008,0.008,0.000,0.000,0.000,0.000,0,0,0,0,7,255,0,250,0,0
prep,1279,1279,0,65658.829,0.989,0.060,-0.037,0.127,1113,0,416,1735,3797,756,435,622,0,0.000,1,0,0.117,0.010,0.060,0.080,-0.060,-0.059,-0.130,0.995,-0.008,-0.006,0.008,0.000,0.000,0.000,0.000,0,0,0,0,7,255,0,250,0,0
prep,1295,1295,0,65663.829,0.989,0.060,-0.037,0.127,1113,0,417,1715,3801,749,429,613,0,0.000,1,0,0.136,0.009,0.120,0.020,-0.060,-0.058,-0.129,0.993,-0.008,-0.004,0.008,0.000,0.000,0.000,0.000,0,0,0,0,7,255,0,250,0,0
prep,1295,1295,0,65668.829,0.989,0.060,-0.037,0.127,1113,0,415,1725,3790,763,437,629,0,0.000,1,0,0.082,0.002,-0.020,0.080,0.000,-0.057,-0.129,0.993,0.000,-0.002,-0.002,0.000,0.000,0.000,0.000,0,0,0,0,7,255,0,250,0,0
prep,1311,1311,0,65673.829,0.989,0.060,-0.037,0.127,1104,0,418,1717,3797,752,427,616,0,0.000,1,0,0.113,0.000,-0.080,0.080,0.000,-0.058,-0.129,0.992,0.000,0.000,-0.008,0.000,0.000,0.000,0.000,0,0,0,0,7,255,0,250,0,0
prep,1311,1311,0,65678.829,0.989,0.060,-0.037,0.127,1116,0,421,1719,3799,761,429,621,0,0.000,1,0,0.028,0.004,-0.020,0.020,0.000,-0.057,-0.129,0.994,0.004,0.000,-0.008,0.000,0.000,0.000,0.000,0,0,0,0,7,255,0,250,0,0
prep,1328,1328,0,65683.829,0.989,0.060,-0.037,0.127,1111,0,410,1711,3812,757,425,621,0,0.000,1,0,0.045,0.002,0.040,0.020,0.000,-0.057,-0.130,0.993,0.002,0.000,-0.006,0.000,0.000,0.000,0.000,0,0,0,0,7,255,0,250,0,0
prep,1344,1344,0,65688.829,0.989,0.060,-0.037,0.127,1113,0,416,1723,3793,759,437,619,0,0.000,1,0,0.102,0.004,-0.020,0.080,0.060,-0.057,-0.129,0.993,0.004,-0.002,-0.006,0.000,0.000,0.000,0.000,0,0,0,0,7,255,0,250,0,0
prep,1344,1344,0,65693.829,0.989,0.060,-0.037,0.127,1107,0,414,1715,3795,759,426,618,0,0.000,1,0,0.066,0.003,-0.020,0.020,0.060,-0.058,-0.129,0.993,0.002,-0.002,-0.006,0.000,0.000,0.000,0.000,0,0,0,0,7,255,0,250,0,0
prep,1344,1344,0,65698.829,0.989,0.060,-0.037,0.127,1123,0,423,1719,3802,761,429,629,0,0.000,1,0,0.028,0.006,-0.020,0.020,0.000,-0.058,-0.128,0.994,0.000,0.006,-0.002,0.000,0.000,0.000,0.000,0,0,0,0,7,255,0,250,0,0
prep,1344,1344,0,65703.830,0.989,0.060,-0.037,0.127,1108,0,417,1704,3797,755,425,621,0,0.000,1,0,0.028,0.008,-0.020,0.020,0.000,-0.059,-0.129,0.993,-0.002,0.008,-0.002,0.000,0.000,0.000,0.000,0,0,0,0,7,255,0,250,0,0
prep,1365,1365,0,65708.829,0.989,0.060,-0.037,0.127,1113,0,421,1725,3791,751,423,629,0,0.000,1,0,0.028,0.011,-0.020,0.020,0.000,-0.058,-0.130,0.993,-0.008,0.008,-0.002,0.000,0.000,0.000,0.000,0,0,0,0,7,255,0,250,0,0
prep,1365,1365,0,65713.829,0.989,0.060,-0.037,0.127,1107,0,411,1709,3793,752,428,621,0,0.000,1,0,0.028,0.009,-0.020,0.020,0.000,-0.058,-0.130,0.993,-0.008,-0.004,-0.006,0.000,0.000,0.000,0.000,0,0,0,0,7,255,0,250,0,0
prep,1365,1365,0,65718.829,0.989,0.060,-0.037,0.127,1113,0,411,1705,3784,751,423,616,0,0.000,1,0,0.057,0.009,0.040,-0.040,0.000,-0.058,-0.130,0.994,-0.008,-0.004,-0.006,0.000,0.000,0.000,0.000,0,0,0,0,7,255,0,250,0,0
prep,1365,1365,0,65723.829,0.989,0.060,-0.037,0.127,1105,0,408,1715,3805,757,424,619,0,0.000,1,0,0.028,0.004,-0.020,0.020,0.000,-0.058,-0.130,0.993,-0.002,-0.004,-0.006,0.000,0.000,0.000,0.000,0,0,0,0,7,255,0,250,0,0
prep,1365,1365,0,65728.829,0.989,0.060,-0.037,0.127,1117,0,421,1723,3799,764,435,629,0,0.000,1,0,0.045,0.004,-0.020,-0.040,0.000,-0.058,-0.129,0.993,-0.002,-0.004,-0.002,0.000,0.000,0.000,0.000,0,0,0,0,7,255,0,250,0,0
prep,1365,1365,0,65733.829,0.989,0.060,-0.037,0.127,1104,0,415,1705,3801,750,427,615,0,0.000,1,0,0.028,0.004,-0.020,0.020,0.000,-0.058,-0.131,0.994,-0.002,-0.004,-0.002,0.000,0.000,0.000,0.000,0,0,0,0,7,255,0,250,0,0
prep,1365,1365,0,65738.829,0.989,0.060,-0.037,0.127,1113,0,415,1715,3793,761,431,629,0,0.000,1,0,0.045,0.008,-0.020,-0.040,0.000,-0.058,-0.130,0.994,-0.002,-0.008,0.004,0.000,0.000,0.000,0.000,0,0,0,0,7,255,0,250,0,0
prep,1375,1375,0,65743.829,0.989,0.060,-0.037,0.127,1111,0,411,1705,3797,756,429,617,0,0.000,1,0,0.075,0.008,-0.020,-0.040,0.060,-0.057,-0.129,0.993,-0.002,-0.008,0.004,0.000,0.000,0.000,0.000,0,0,0,0,7,255,0,250,0,0
prep,1375,1375,0,65748.829,0.989,0.060,-0.037,0.127,1115,0,421,1719,3799,761,427,623,0,0.000,1,0,0.066,0.006,-0.020,0.020,0.060,-0.057,-0.130,0.993,0.002,-0.006,-0.002,0.000,0.000,0.000,0.000,0,0,0,0,7,255,0,250,0,0
prep,1394,1394,0,65753.829,0.989,0.060,-0.037,0.127,1101,0,413,1705,3812,755,422,619,0,0.000,1,0,0.066,0.003,-0.020,0.020,0.060,-0.058,-0.130,0.993,0.002,-0.002,-0.002,0.000,0.000,0.000,0.000,0,0,0,0,7,255,0,250,0,0
prep,1394,1394,0,65758.829,0.989,0.060,-0.037,0.127,1110,0,419,1719,3803,759,428,629,0,0.000,1,0,0.028,0.004,-0.020,0.020,0.000,-0.058,-0.130,0.993,-0.002,-0.004,-0.002,0.000,0.000,0.000,0.000,0,0,0,0,7,255,0,250,0,0
prep,1394,1394,0,65763.829,0.989,0.060,-0.037,0.127,1121,0,415,1719,3796,759,435,631,0,0.000,1,0,0.028,0.004,-0.020,0.020,0.000,-0.058,-0.130,0.994,-0.002,-0.004,0.000,0.000,0.000,0.000,0.000,0,0,0,0,7,255,0,250,0,0
prep,1394,1394,0,65768.829,0.989,0.060,-0.037,0.127,1112,0,423,1723,3801,763,429,623,0,0.000,1,0,0.028,0.004,-0.020,0.020,0.000,-0.057,-0.130,0.993,-0.002,-0.004,-0.002,0.000,0.000,0.000,0.000,0,0,0,0,7,255,0,250,0,0
prep,1407,1407,0,65773.829,0.989,0.060,-0.037,0.127,1115,0,415,1719,3788,759,433,629,0,0.000,1,0,0.087,0.004,0.060,0.020,0.060,-0.058,-0.129,0.994,0.002,-0.004,0.004,0.000,0.000,0.000,0.000,0,0,0,0,7,255,0,250,0,0
prep,1407,1407,0,65778.829,0.989,0.060,-0.037,0.127,1113,0,415,1721,3788,758,431,631,0,0.000,1,0,0.089,0.006,-0.080,-0.040,0.000,-0.058,-0.129,0.993,0.002,0.006,-0.002,0.000,0.000,0.000,0.000,0,0,0,0,7,255,0,250,0,0
prep,1439,1439,0,65783.829,0.989,0.060,-0.037,0.127,1121,0,425,1723,3803,756,429,624,0,0.000,1,0,0.045,0.006,-0.020,-0.040,0.000,-0.058,-0.129,0.993,0.000,0.006,-0.002,0.000,0.000,0.000,0.000,0,0,0,0,7,255,0,250,0,0
prep,1439,1439,0,65788.830,0.989,0.060,-0.037,0.127,1112,0,420,1718,3789,761,435,631,0,0.000,1,0,0.072,0.006,0.060,-0.040,0.000,-0.058,-0.130,0.994,-0.006,0.002,-0.002,0.000,0.000,0.000,0.000,0,0,0,0,7,255,0,250,0,0
prep,1439,1439,0,65793.829,0.989,0.060,-0.037,0.127,1111,0,416,1721,3785,761,434,631,0,0.000,1,0,0.045,0.006,-0.020,-0.040,0.000,-0.058,-0.130,0.994,-0.006,-0.002,0.004,0.000,0.000,0.000,0.000,0,0,0,0,7,255,0,250,0,0
prep,1439,1439,0,65798.829,0.989,0.060,-0.037,0.127,1117,0,419,1717,3800,761,429,619,0,0.000,1,0,0.072,0.006,0.060,-0.040,0.000,-0.058,-0.129,0.993,-0.006,-0.002,0.004,0.000,0.000,0.000,0.000,0,0,0,0,7,255,0,250,0,0
prep,1439,1439,0,65803.829,0.989,0.060,-0.037,0.127,1117,0,420,1723,3797,759,435,630,0,0.000,1,0,0.045,0.006,0.040,0.020,0.000,-0.059,-0.129,0.993,-0.006,0.002,-0.002,0.000,0.000,0.000,0.000,0,0,0,0,7,255,0,250,0,0
prep,1439,1439,0,65808.829,0.989,0.060,-0.037,0.127,1121,0,420,1721,3795,760,433,629,0,0.000,1,0,0.057,0.004,0.040,-0.040,0.000,-0.058,-0.129,0.993,-0.004,0.002,-0.006,0.000,0.000,0.000,0.000,0,0,0,0,7,255,0,250,0,0
prep,1455,1455,0,65813.829,0.989,0.060,-0.037,0.127,1115,0,419,1719,3799,757,428,629,0,0.000,1,0,0.066,0.002,-0.020,0.020,-0.060,-0.058,-0.130,0.993,-0.002,0.000,-0.006,0.000,0.000,0.000,0.000,0,0,0,0,7,255,0,250,0,0
prep,1455,1455,0,65818.829,0.989,0.060,-0.037,0.127,1112,0,416,1725,3800,760,433,627,0,0.000,1,0,0.028,0.000,-0.020,0.020,0.000,-0.057,-0.128,0.993,0.000,0.000,-0.006,0.000,0.000,0.000,0.000,0,0,0,0,7,255,0,250,0,0
prep,1455,1455,0,65823.829,0.989,0.060,-0.037,0.127,1101,0,411,1705,3790,764,423,617,0,0.000,1,0,0.028,0.002,-0.020,0.020,0.000,-0.058,-0.129,0.994,0.000,0.002,-0.004,0.000,0.000,0.000,0.000,0,0,0,0,7,255,0,250,0,0
prep,1455,1455,0,65828.829,0.989,0.060,-0.037,0.127,1115,0,416,1708,3793,759,435,629,0,0.000,1,0,0.075,0.002,0.040,0.020,-0.060,-0.058,-0.130,0.993,0.000,0.002,0.000,0.000,0.000,0.000,0.000,0,0,0,0,7,255,0,250,0,0
prep,1471,1471,0,65833.829,0.989,0.060,-0.037,0.127,1117,0,419,1723,3799,757,429,624,0,0.000,1,0,0.028,0.004,-0.020,0.020,0.000,-0.057,-0.130,0.994,0.000,-0.004,0.004,0.000,0.000,0.000,0.000,0,0,0,0,7,255,0,250,0,0
prep,1471,1471,0,65838.829,0.989,0.060,-0.037,0.127,1117,0,423,1721,3801,755,430,623,0,0.000,1,0,0.102,0.004,-0.020,0.080,-0.060,-0.057,-0.128,0.992,0.002,-0.004,0.000,0.000,0.000,0.000,0.000,0,0,0,0,7,255,0,250,0,0
prep,1471,1471,0,65843.829,0.989,0.060,-0.037,0.127,1123,0,423,1720,3805,763,429,625,0,0.000,1,0,0.045,0.006,0.040,0.020,0.000,-0.058,-0.129,0.995,0.002,0.006,0.004,0.000,0.000,0.000,0.000,0,0,0,0,7,255,0,250,0,0
prep,1471,1471,0,65848.829,0.989,0.060,-0.037,0.127,1113,0,417,1712,3793,762,435,621,0,0.000,1,0,0.028,0.006,-0.020,0.020,0.000,-0.057,-0.130,0.994,0.002,0.006,0.004,0.000,0.000,0.000,0.000,0,0,0,0,7,255,0,250,0,0
prep,1487,1487,0,65853.829,0.989,0.060,-0.037,0.127,1110,0,423,1727,3800,761,427,625,0,0.000,1,0,0.066,0.003,-0.020,0.020,-0.060,-0.058,-0.130,0.993,0.002,-0.002,0.004,0.000,0.000,0.000,0.000,0,0,0,0,7,255,0,250,0,0
prep,1487,1487,0,65858.829,0.989,0.060,-0.037,0.127,1110,0,419,1718,3790,758,433,629,0,0.000,1,0,0.066,0.002,-0.020,0.020,-0.060,-0.058,-0.129,0.994,0.000,-0.002,0.004,0.000,0.000,0.000,0.000,0,0,0,0,7,255,0,250,0,0
prep,1504,1504,0,65863.829,0.989,0.060,-0.037,0.127,1117,0,423,1723,3800,763,429,629,0,0.000,1,0,0.045,0.006,-0.020,-0.040,0.000,-0.058,-0.130,0.993,-0.006,-0.002,0.000,0.000,0.000,0.000,0.000,0,0,0,0,7,255,0,250,0,0
prep,1504,1504,0,65868.829,0.989,0.060,-0.037,0.127,1119,0,419,1723,3789,760,435,631,0,0.000,1,0,0.066,0.004,-0.020,0.020,-0.060,-0.058,-0.129,0.993,-0.004,0.002,0.000,0.000,0.000,0.000,0.000,0,0,0,0,7,255,0,250,0,0
prep,1504,1504,0,65873.829,0.989,0.060,-0.037,0.127,1111,0,422,1733,3795,761,435,627,0,0.000,1,0,0.066,0.007,-0.020,0.020,-0.060,-0.058,-0.128,0.994,-0.004,0.006,0.000,0.000,0.000,0.000,0.000,0,0,0,0,7,255,0,250,0,0
prep,1504,1504,0,65878.829,0.989,0.060,-0.037,0.127,1117,0,419,1723,3799,760,435,631,0,0.000,1,0,0.082,0.006,0.040,-0.040,-0.060,-0.057,-0.130,0.993,0.002,0.006,-0.002,0.000,0.000,0.000,0.000,0,0,0,0,7,255,0,250,0,0
prep,1535,1535,0,65883.829,0.989,0.060,-0.037,0.127,1111,0,421,1723,3796,758,437,628,0,0.000,1,0,0.146,0.003,-0.020,0.080,-0.120,-0.059,-0.130,0.994,0.002,-0.002,0.002,0.000,0.000,0.000,0.000,0,0,0,0,7,255,0,250,0,0
prep,1535,1535,0,65888.829,0.989,0.060,-0.037,0.127,1111,0,425,1717,3799,760,431,623,0,0.000,1,0,0.066,0.002,-0.020,0.020,-0.060,-0.058,-0.129,0.993,0.000,-0.002,-0.002,0.000,0.000,0.000,0.000,0,0,0,0,7,255,0,250,0,0
prep,1535,1535,0,65893.830,0.989,0.060,-0.037,0.127,1111,0,420,1725,3793,760,429,629,0,0.000,1,0,0.045,0.006,0.040,0.020,0.000,-0.059,-0.128,0.994,-0.006,0.000,0.004,0.000,0.000,0.000,0.000,0,0,0,0,7,255,0,250,0,0
prep,1535,1535,0,65898.829,0.989,0.060,-0.037,0.127,1121,0,423,1720,3805,760,431,629,0,0.000,1,0,0.102,0.002,-0.020,0.080,-0.060,-0.058,-0.130,0.994,-0.002,0.000,0.004,0.000,0.000,0.000,0.000,0,0,0,0,7,255,0,250,0,0
prep,1535,1535,0,65903.829,0.989,0.060,-0.037,0.127,1115,0,425,1720,3795,759,429,629,0,0.000,1,0,0.128,0.006,-0.020,-0.040,-0.120,-0.058,-0.130,0.993,-0.006,-0.002,0.004,0.000,0.000,0.000,0.000,0,0,0,0,7,255,0,250,0,0
prep,1535,1535,0,65908.829,0.989,0.060,-0.037,0.127,1108,0,423,1725,3799,761,433,623,0,0.000,1,0,0.123,0.004,-0.020,0.020,-0.120,-0.058,-0.129,0.994,-0.004,-0.002,0.002,0.000,0.000,0.000,0.000,0,0,0,0,7,255,0,250,0,0
prep,1551,1551,0,65913.829,0.989,0.060,-0.037,0.127,1111,0,423,1723,3793,757,429,624,0,0.000,1,0,0.102,0.006,-0.080,0.020,-0.060,-0.059,-0.130,0.994,-0.006,-0.002,0.002,0.000,0.000,0.000,0.000,0,0,0,0,7,255,0,250,0,0
prep,1551,1551,0,65918.829,0.989,0.060,-0.037,0.127,1113,0,419,1715,3793,763,435,622,0,0.000,1,0,0.066,0.004,-0.020,0.020,-0.060,-0.058,-0.129,0.994,-0.004,0.002,0.004,0.000,0.000,0.000,0.000,0,0,0,0,7,255,0,250,0,0
prep,1567,1567,0,65923.829,0.989,0.060,-0.037,0.127,1114,0,424,1727,3799,763,429,624,0,0.000,1,0,0.128,0.000,0.040,0.020,-0.120,-0.058,-0.129,0.994,0.000,0.000,0.004,0.000,0.000,0.000,0.000,0,0,0,0,7,255,0,250,0,0
prep,1567,1567,0,65928.829,0.989,0.060,-0.037,0.127,1114,0,423,1725,3789,760,437,629,0,0.000,1,0,0.146,0.002,-0.080,0.020,-0.120,-0.058,-0.129,0.994,0.000,0.002,0.002,0.000,0.000,0.000,0.000,0,0,0,0,7,255,0,250,0,0
prep,1567,1567,0,65933.829,0.989,0.060,-0.037,0.127,1110,0,421,1727,3797,759,433,623,0,0.000,1,0,0.146,0.004,-0.080,0.020,-0.120,-0.058,-0.129,0.993,-0.004,0.002,0.002,0.000,0.000,0.000,0.000,0,0,0,0,7,255,0,250,0,0
prep,1567,1567,0,65938.830,0.989,0.060,-0.037,0.127,1115,0,425,1721,3801,762,431,624,0,0.000,1,0,0.066,0.007,-0.020,0.020,-0.060,-0.059,-0.129,0.994,-0.006,0.004,0.002,0.000,0.000,0.000,0.000,0,0,0,0,7,255,0,250,0,0
prep,1567,1567,0,65943.829,0.989,0.060,-0.037,0.127,1109,0,421,1719,3790,763,437,631,0,0.000,1,0,0.123,0.007,-0.020,0.020,-0.120,-0.058,-0.129,0.994,-0.006,0.004,0.002,0.000,0.000,0.000,0.000,0,0,0,0,7,255,0,250,0,0
prep,1567,1567,0,65948.829,0.989,0.060,-0.037,0.127,1109,0,422,1715,3795,763,429,630,0,0.000,1,0,0.066,0.007,-0.020,0.020,-0.060,-0.058,-0.128,0.993,-0.004,0.006,0.002,0.000,0.000,0.000,0.000,0,0,0,0,7,255,0,250,0,0
prep,1583,1583,0,65953.829,0.989,0.060,-0.037,0.127,1117,0,419,1719,3789,764,431,631,0,0.000,1,0,0.123,0.006,-0.020,0.020,-0.120,-0.058,-0.130,0.993,-0.002,0.006,-0.002,0.000,0.000,0.000,0.000,0,0,0,0,7,255,0,250,0,0
prep,1583,1583,0,65958.829,0.989,0.060,-0.037,0.127,1109,0,425,1726,3804,763,437,623,0,0.000,1,0,0.123,0.000,-0.020,0.020,-0.120,-0.058,-0.129,0.994,0.000,0.000,-0.002,0.000,0.000,0.000,0.000,0,0,0,0,7,255,0,250,0,0
prep,1599,1599,0,65963.829,0.989,0.060,-0.037,0.127,1110,0,425,1726,3799,761,431,623,0,0.000,1,0,0.123,0.004,-0.020,0.020,-0.120,-0.057,-0.130,0.994,0.000,-0.004,0.002,0.000,0.000,0.000,0.000,0,0,0,0,7,255,0,250,0,0
prep,1599,1599,0,65968.829,0.989,0.060,-0.037,0.127,1117,0,425,1721,3805,763,431,623,0,0.000,1,0,0.102,0.004,-0.080,0.020,-0.060,-0.057,-0.129,0.994,0.004,-0.002,0.004,0.000,0.000,0.000,0.000,0,0,0,0,7,255,0,250,0,0
prep,1632,1632,0,65973.829,0.989,0.060,-0.037,0.127,1113,0,421,1719,3793,759,437,631,0,0.000,1,0,0.128,0.010,-0.020,-0.040,-0.120,-0.057,-0.129,0.993,0.010,-0.002,0.004,0.000,0.000,0.000,0.000,0,0,0,0,7,255,0,250,0,0
prep,1632,1632,0,65978.829,0.989,0.060,-0.037,0.127,1107,0,420,1709,3785,761,435,629,0,0.000,1,0,0.123,0.010,-0.020,0.020,-0.120,-0.058,-0.129,0.994,0.010,0.002,0.004,0.000,0.000,0.000,0.000,0,0,0,0,7,255,0,250,0,0
prep,1632,1632,0,65983.829,0.989,0.060,-0.037,0.127,1111,0,423,1724,3791,759,431,626,0,0.000,1,0,0.146,0.003,-0.020,0.080,-0.120,-0.058,-0.130,0.993,-0.002,0.002,-0.002,0.000,0.000,0.000,0.000,0,0,0,0,7,255,0,250,0,0
prep,1632,1632,0,65988.829,0.989,0.060,-0.037,0.127,1112,0,419,1716,3793,765,435,631,0,0.000,1,0,0.108,0.003,-0.080,-0.040,-0.060,-0.058,-0.128,0.993,-0.002,0.002,-0.002,0.000,0.000,0.000,0.000,0,0,0,0,7,255,0,250,0,0
prep,1664,1664,0,65993.829,0.989,0.060,-0.037,0.127,1102,0,416,1723,3796,760,426,629,0,0.000,1,0,0.102,0.002,-0.080,0.020,-0.060,-0.058,-0.129,0.993,-0.002,0.000,-0.006,0.000,0.000,0.000,0.000,0,0,0,0,7,255,0,250,0,0
prep,1664,1664,0,65998.829,0.989,0.060,-0.037,0.127,1109,0,420,1724,3795,763,435,623,0,0.000,1,0,0.075,0.002,-0.020,-0.040,-0.060,-0.058,-0.130,0.994,-0.002,0.000,-0.006,0.000,0.000,0.000,0.000,0,0,0,0,7,255,0,250,0,0
prep,1664,1664,0,66003.829,0.989,0.060,-0.037,0.127,1111,0,425,1719,3793,765,431,631,0,0.000,1,0,0.140,0.006,0.060,-0.040,-0.120,-0.059,-0.130,0.994,-0.006,-0.002,0.004,0.000,0.000,0.000,0.000,0,0,0,0,7,255,0,250,0,0
prep,1664,1664,0,66008.829,0.989,0.060,-0.037,0.127,1115,0,425,1703,3795,763,431,631,0,0.000,1,0,0.123,0.006,-0.020,0.020,-0.120,-0.058,-0.129,0.993,-0.006,-0.002,0.004,0.000,0.000,0.000,0.000,0,0,0,0,7,255,0,250,0,0
prep,1664,1664,0,66013.829,0.989,0.060,-0.037,0.127,1117,0,424,1717,3801,759,432,627,0,0.000,1,0,0.066,0.010,-0.020,0.020,-0.060,-0.059,-0.129,0.994,-0.010,0.000,0.004,0.000,0.000,0.000,0.000,0,0,0,0,7,255,0,250,0,0
prep,1664,1664,0,66018.829,0.989,0.060,-0.037,0.127,1097,0,415,1703,3787,751,427,616,0,0.000,1,0,0.066,0.006,-0.020,0.020,-0.060,-0.057,-0.129,0.994,-0.006,0.000,0.004,0.000,0.000,0.000,0.000,0,0,0,0,7,255,0,250,0,0
prep,1664,1664,0,66023.829,0.989,0.060,-0.037,0.127,1103,0,423,1723,3799,759,431,622,0,0.000,1,0,0.150,0.010,-0.080,-0.040,-0.120,-0.056,-0.129,0.993,0.010,-0.002,0.004,0.000,0.000,0.000,0.000,0,0,0,0,7,255,0,250,0,0
prep,1664,1664,0,66028.829,0.989,0.060,-0.037,0.127,1095,0,413,1705,3801,752,427,625,0,0.000,1,0,0.146,0.011,-0.080,0.020,-0.120,-0.057,-0.130,0.994,0.010,-0.004,0.002,0.000,0.000,0.000,0.000,0,0,0,0,7,255,0,250,0,0
prep,1680,1680,0,66033.829,0.989,0.060,-0.037,0.127,1107,0,422,1717,3795,750,437,628,0,0.000,1,0,0.191,0.010,0.060,0.020,-0.180,-0.057,-0.130,0.993,0.008,-0.006,-0.002,0.000,0.000,0.000,0.000,0,0,0,0,7,255,0,250,0,0
prep,1680,1680,0,66038.830,0.989,0.060,-0.037,0.127,1100,0,416,1705,3787,760,435,623,0,0.000,1,0,0.140,0.007,0.060,-0.040,-0.120,-0.057,-0.130,0.994,0.004,-0.006,0.002,0.000,0.000,0.000,0.000,0,0,0,0,7,255,0,250,0,0
prep,1680,1680,0,66043.829,0.989,0.060,-0.037,0.127,1109,0,425,1723,3791,765,433,625,0,0.000,1,0,0.136,0.007,0.060,0.020,-0.120,-0.058,-0.128,0.994,0.004,-0.006,0.004,0.000,0.000,0.000,0.000,0,0,0,0,7,255,0,250,0,0
prep,1680,1680,0,66048.829,0.989,0.060,-0.037,0.127,1105,0,425,1724,3793,765,429,626,0,0.000,1,0,0.182,0.015,-0.020,0.020,-0.180,-0.058,-0.127,0.993,0.004,0.014,0.004,0.000,0.000,0.000,0.000,0,0,0,0,7,255,0,250,0,0
prep,1680,1680,0,66053.829,0.989,0.060,-0.037,0.127,1107,0,423,1721,3789,760,435,625,0,0.000,1,0,0.123,0.015,-0.020,0.020,-0.120,-0.057,-0.129,0.993,0.004,0.014,-0.004,0.000,0.000,0.000,0.000,0,0,0,0,7,255,0,250,0,0
prep,1680,1680,0,66058.829,0.989,0.060,-0.037,0.127,1109,0,427,1724,3801,759,429,625,0,0.000,1,0,0.123,0.004,-0.020,0.020,-0.120,-0.058,-0.130,0.994,0.004,-0.002,-0.004,0.000,0.000,0.000,0.000,0,0,0,0,7,255,0,250,0,0
prep,1695,1695,0,66063.829,0.989,0.060,-0.037,0.127,1113,0,421,1719,3785,756,432,631,0,0.000,1,0,0.102,0.004,-0.080,0.020,-0.060,-0.057,-0.129,0.994,0.004,-0.002,0.002,0.000,0.000,0.000,0.000,0,0,0,0,7,255,0,250,0,0
prep,1695,1695,0,66068.829,0.989,0.060,-0.037,0.127,1103,0,425,1716,3801,764,435,629,0,0.000,1,0,0.150,0.004,-0.080,-0.040,-0.120,-0.057,-0.129,0.993,0.004,-0.002,0.002,0.000,0.000,0.000,0.000,0,0,0,0,7,255,0,250,0,0
prep,1711,1711,0,66073.829,0.989,0.060,-0.037,0.127,1105,0,425,1725,3801,763,431,623,0,0.000,1,0,0.154,0.006,-0.140,0.020,-0.060,-0.057,-0.129,0.993,0.006,0.002,-0.002,0.000,0.000,0.000,0.000,0,0,0,0,7,255,0,250,0,0
prep,1711,1711,0,66078.829,0.989,0.060,-0.037,0.127,1101,0,425,1715,3801,764,432,631,0,0.000,1,0,0.165,0.004,-0.080,0.080,-0.120,-0.057,-0.130,0.993,0.004,-0.002,-0.004,0.000,0.000,0.000,0.000,0,0,0,0,7,255,0,250,0,0
prep,1711,1711,0,66083.829,0.989,0.060,-0.037,0.127,1111,0,425,1717,3801,757,430,631,0,0.000,1,0,0.082,0.006,-0.080,0.020,0.000,-0.057,-0.129,0.993,0.006,0.002,-0.004,0.000,0.000,0.000,0.000,0,0,0,0,7,255,0,250,0,0
prep,1743,1743,0,66088.829,0.989,0.060,-0.037,0.127,1094,0,413,1707,3796,751,427,618,0,0.000,1,0,0.020,0.006,0.000,0.020,0.000,-0.058,-0.130,0.994,0.002,-0.006,-0.002,0.000,0.000,0.000,0.000,0,0,0,0,7,255,0,250,0,0
prep,1743,1743,0,66093.829,0.989,0.060,-0.037,0.127,1105,0,420,1717,3791,759,430,631,0,0.000,1,0,0.040,0.006,0.000,-0.040,0.000,-0.058,-0.130,0.993,-0.002,-0.006,-0.002,0.000,0.000,0.000,0.000,0,0,0,0,7,255,0,250,0,0
prep,1743,1743,0,66098.830,0.989,0.060,-0.037,0.127,1095,0,419,1714,3785,753,427,625,0,0.000,1,0,0.072,0.010,0.000,-0.040,-0.060,-0.059,-0.130,0.992,-0.008,-0.006,-0.006,0.000,0.000,0.000,0.000,0,0,0,0,7,255,0,250,0,0
prep,1743,1743,0,66103.829,0.989,0.060,-0.037,0.127,1107,0,423,1721,3795,765,437,628,0,0.000,1,0,0.063,0.007,0.060,0.020,0.000,-0.058,-0.130,0.993,-0.006,-0.004,-0.006,0.000,0.000,0.000,0.000,0,0,0,0,7,255,0,250,0,0
prep,1743,1743,0,66108.829,0.989,0.060,-0.037,0.127,1099,0,416,1704,3789,761,430,623,0,0.000,1,0,0.072,0.011,0.060,-0.040,0.000,-0.059,-0.130,0.993,-0.010,-0.004,0.000,0.000,0.000,0.000,0.000,0,0,0,0,7,255,0,250,0,0
prep,1743,1743,0,66113.829,0.989,0.060,-0.037,0.127,1102,0,425,1703,3800,764,433,623,0,0.000,1,0,0.122,0.007,0.120,0.020,0.000,-0.057,-0.130,0.994,-0.006,-0.004,0.000,0.000,0.000,0.000,0.000,0,0,0,0,7,255,0,250,0,0
prep,1763,1763,0,66118.829,0.989,0.060,-0.037,0.127,1102,0,425,1723,3799,764,430,623,0,0.000,1,0,0.040,0.004,0.000,-0.040,0.000,-0.058,-0.130,0.993,-0.002,-0.004,0.000,0.000,0.000,0.000,0.000,0,0,0,0,7,255,0,250,0,0
prep,1763,1763,0,66123.829,0.989,0.060,-0.037,0.127,1095,0,415,1701,3783,751,426,617,0,0.000,1,0,0.140,0.004,0.120,-0.040,-0.060,-0.058,-0.129,0.993,0.000,-0.004,-0.002,0.000,0.000,0.000,0.000,0,0,0,0,7,255,0,250,0,0
prep,1763,1763,0,66128.829,0.989,0.060,-0.037,0.127,1109,0,421,1712,3797,758,437,631,0,0.000,1,0,0.126,0.004,0.120,-0.040,0.000,-0.058,-0.129,0.993,-0.002,0.004,-0.002,0.000,0.000,0.000,0.000,0,0,0,0,7,255,0,250,0,0
prep,1763,1763,0,66133.829,0.989,0.060,-0.037,0.127,1107,0,427,1723,3799,759,429,627,0,0.000,1,0,0.045,0.004,-0.020,-0.040,0.000,-0.058,-0.130,0.992,-0.002,0.004,-0.002,0.000,0.000,0.000,0.000,0,0,0,0,7,255,0,250,0,0
prep,1764,1764,0,66138.829,0.989,0.060,-0.037,0.127,1111,0,422,1715,3787,761,434,633,0,0.000,1,0,0.094,0.007,0.060,-0.040,0.060,-0.058,-0.130,0.993,-0.004,-0.006,-0.006,0.000,0.000,0.000,0.000,0,0,0,0,7,255,0,250,0,0
prep,1764,1764,0,66143.829,0.989,0.060,-0.037,0.127,1098,0,427,1717,3807,758,435,624,0,0.000,1,0,0.131,0.006,0.060,-0.100,0.060,-0.057,-0.130,0.992,-0.002,-0.006,-0.010,0.000,0.000,0.000,0.000,0,0,0,0,7,255,0,250,0,0
prep,1793,1793,0,66148.830,0.989,0.060,-0.037,0.127,1111,0,424,1721,3803,757,435,624,0,0.000,1,0,0.131,0.006,0.060,-0.100,0.060,-0.057,-0.130,0.993,0.002,-0.006,-0.006,0.000,0.000,0.000,0.000,0,0,0,0,7,255,0,250,0,0
prep,1793,1793,0,66153.829,0.989,0.060,-0.037,0.127,1107,0,426,1720,3789,764,435,623,0,0.000,1,0,0.131,0.006,0.060,-0.100,0.060,-0.056,-0.129,0.994,0.002,-0.006,-0.006,0.000,0.000,0.000,0.000,0,0,0,0,7,255,0,250,0,0
prep,1794,1794,0,66158.829,0.989,0.060,-0.037,0.127,1103,0,416,1723,3787,759,437,628,0,0.000,1,0,0.189,0.008,0.120,-0.040,0.140,-0.057,-0.131,0.994,0.006,-0.006,0.002,0.000,0.000,0.000,0.000,0,0,0,0,7,255,0,250,0,0
prep,1794,1794,0,66163.829,0.989,0.060,-0.037,0.127,1111,0,426,1725,3802,765,435,623,0,0.000,1,0,0.094,0.010,0.060,-0.040,0.060,-0.057,-0.130,0.994,0.006,-0.008,0.008,0.000,0.000,0.000,0.000,0,0,0,0,7,255,0,250,0,0
prep,1794,1794,0,66168.829,0.989,0.060,-0.037,0.127,1107,0,421,1719,3787,761,431,633,0,0.000,1,0,0.140,0.008,0.060,-0.040,0.120,-0.058,-0.130,0.993,0.002,-0.008,0.008,0.000,0.000,0.000,0.000,0,0,0,0,7,255,0,250,0,0
prep,1794,1794,0,66173.829,0.989,0.060,-0.037,0.127,1109,0,422,1716,3789,764,438,629,0,0.000,1,0,0.197,0.003,0.120,-0.100,0.120,-0.057,-0.129,0.992,0.002,-0.002,0.000,0.000,0.000,0.000,0.000,0,0,0,0,7,255,0,250,0,0
prep,1840,1840,0,66178.829,0.989,0.060,-0.037,0.127,1111,0,425,1712,3799,761,435,631,0,0.000,1,0,0.197,0.006,0.120,-0.100,0.120,-0.058,-0.130,0.993,-0.006,-0.002,-0.006,0.000,0.000,0.000,0.000,0,0,0,0,7,255,0,250,0,0
prep,1840,1840,0,66183.829,0.989,0.060,-0.037,0.127,1115,0,419,1717,3786,762,439,632,0,0.000,1,0,0.214,0.007,0.180,-0.100,0.060,-0.058,-0.130,0.993,-0.006,-0.004,-0.006,0.000,0.000,0.000,0.000,0,0,0,0,7,255,0,250,0,0
prep,1840,1840,0,66188.829,0.989,0.060,-0.037,0.127,1112,0,425,1721,3797,758,435,627,0,0.000,1,0,0.140,0.011,0.120,-0.040,0.060,-0.058,-0.131,0.994,-0.008,-0.008,0.000,0.000,0.000,0.000,0.000,0,0,0,0,7,255,0,250,0,0
prep,1840,1840,0,66193.829,0.989,0.060,-0.037,0.127,1111,0,421,1723,3795,760,432,625,0,0.000,1,0,0.185,0.011,0.100,-0.100,0.120,-0.058,-0.130,0.993,-0.008,-0.008,0.000,0.000,0.000,0.000,0.000,0,0,0,0,7,255,0,250,0,0
prep,1840,1840,0,66198.829,0.989,0.060,-0.037,0.127,1111,0,425,1717,3801,762,439,632,0,0.000,1,0,0.082,0.006,0.040,-0.040,0.060,-0.058,-0.129,0.992,-0.006,-0.002,0.000,0.000,0.000,0.000,0.000,0,0,0,0,7,255,0,250,0,0
prep,1840,1840,0,66203.829,0.989,0.060,-0.037,0.127,1111,0,427,1713,3806,760,436,624,0,0.000,1,0,0.161,0.004,0.100,-0.040,0.120,-0.058,-0.129,0.993,-0.004,0.000,-0.006,0.000,0.000,0.000,0.000,0,0,0,0,7,255,0,250,0,0
prep,1860,1860,0,66208.829,0.989,0.060,-0.037,0.127,1107,0,425,1721,3801,764,437,628,0,0.000,1,0,0.075,0.004,0.040,0.020,0.060,-0.057,-0.129,0.992,0.000,0.004,-0.012,0.000,0.000,0.000,0.000,0,0,0,0,7,255,0,250,0,0
prep,1860,1860,0,66213.829,0.989,0.060,-0.037,0.127,1109,0,421,1721,3794,763,439,633,0,0.000,1,0,0.133,0.004,0.040,-0.040,0.120,-0.056,-0.129,0.993,0.004,0.000,-0.006,0.000,0.000,0.000,0.000,0,0,0,0,7,255,0,250,0,0
prep,1860,1860,0,66218.829,0.989,0.060,-0.037,0.127,1110,0,426,1725,3804,764,437,629,0,0.000,1,0,0.133,0.010,0.040,-0.040,0.120,-0.057,-0.129,0.993,0.010,0.002,-0.006,0.000,0.000,0.000,0.000,0,0,0,0,7,255,0,250,0,0
prep,1860,1860,0,66223.829,0.989,0.060,-0.037,0.127,1113,0,421,1711,3790,761,439,632,0,0.000,1,0,0.185,0.010,0.040,0.020,0.180,-0.057,-0.130,0.993,0.010,-0.002,-0.002,0.000,0.000,0.000,0.000,0,0,0,0,7,255,0,250,0,0
prep,1860,1860,0,66228.829,0.989,0.060,-0.037,0.127,1113,0,422,1717,3800,760,439,635,0,0.000,1,0,0.185,0.004,0.040,0.020,0.180,-0.058,-0.130,0.993,0.002,-0.004,0.000,0.000,0.000,0.000,0.000,0,0,0,0,7,255,0,250,0,0
prep,1860,1860,0,66233.829,0.989,0.060,-0.037,0.127,1107,0,417,1719,3787,759,430,631,0,0.000,1,0,0.161,0.004,0.100,-0.040,0.120,-0.058,-0.130,0.994,-0.002,-0.004,0.000,0.000,0.000,0.000,0.000,0,0,0,0,7,255,0,250,0,0
prep,1872,1872,0,66238.829,0.989,0.060,-0.037,0.127,1109,0,423,1719,3795,762,439,633,0,0.000,1,0,0.123,0.004,-0.020,0.020,0.120,-0.058,-0.130,0.993,-0.002,-0.004,0.000,0.000,0.000,0.000,0.000,0,0,0,0,7,255,0,250,0,0
prep,1872,1872,0,66243.830,0.989,0.060,-0.037,0.127,1113,0,423,1719,3789,762,432,633,0,0.000,1,0,0.128,0.004,0.040,0.020,0.120,-0.057,-0.129,0.994,-0.002,-0.004,0.002,0.000,0.000,0.000,0.000,0,0,0,0,7,255,0,250,0,0
prep,1888,1888,0,66248.829,0.989,0.060,-0.037,0.127,1115,0,423,1719,3795,758,436,632,0,0.000,1,0,0.128,0.004,0.040,0.020,0.120,-0.059,-0.130,0.994,-0.002,-0.004,0.002,0.000,0.000,0.000,0.000,0,0,0,0,7,255,0,250,0,0
prep,1888,1888,0,66253.829,0.989,0.060,-0.037,0.127,1113,0,423,1725,3800,763,437,629,0,0.000,1,0,0.123,0.010,-0.020,0.020,0.120,-0.059,-0.130,0.995,-0.010,0.000,0.006,0.000,0.000,0.000,0.000,0,0,0,0,7,255,0,250,0,0
prep,1888,1888,0,66258.829,0.989,0.060,-0.037,0.127,1108,0,427,1721,3794,761,433,628,0,0.000,1,0,0.201,0.012,-0.080,-0.040,0.180,-0.058,-0.131,0.993,-0.010,-0.006,0.006,0.000,0.000,0.000,0.000,0,0,0,0,7,255,0,250,0,0
prep,1888,1888,0,66263.829,0.989,0.060,-0.037,0.127,1105,0,422,1713,3795,762,437,631,0,0.000,1,0,0.128,0.004,-0.020,-0.040,0.120,-0.058,-0.129,0.993,-0.004,0.000,0.000,0.000,0.000,0.000,0.000,0,0,0,0,7,255,0,250,0,0
prep,1903,1903,0,66268.829,0.989,0.060,-0.037,0.127,1108,0,423,1724,3803,763,435,629,0,0.000,1,0,0.118,0.004,0.100,0.020,0.060,-0.059,-0.130,0.993,-0.004,-0.002,0.000,0.000,0.000,0.000,0.000,0,0,0,0,7,255,0,250,0,0
prep,1903,1903,0,66273.829,0.989,0.060,-0.037,0.127,1111,0,421,1716,3793,763,432,633,0,0.000,1,0,0.075,0.008,0.040,0.020,0.060,-0.058,-0.130,0.993,-0.008,-0.002,0.000,0.000,0.000,0.000,0.000,0,0,0,0,7,255,0,250,0,0
prep,1935,1935,0,66278.829,0.989,0.060,-0.037,0.127,1108,0,422,1719,3800,761,437,633,0,0.000,1,0,0.118,0.008,0.100,0.020,0.060,-0.057,-0.128,0.994,-0.008,-0.002,0.000,0.000,0.000,0.000,0.000,0,0,0,0,7,255,0,250,0,0
prep,1935,1935,0,66283.829,0.989,0.060,-0.037,0.127,1109,0,427,1725,3793,763,430,629,0,0.000,1,0,0.045,0.006,0.040,0.020,0.000,-0.058,-0.129,0.993,0.000,0.006,-0.004,0.000,0.000,0.000,0.000,0,0,0,0,7,255,0,250,0,0
prep,1935,1935,0,66288.829,0.989,0.060,-0.037,0.127,1109,0,427,1725,3795,759,437,627,0,0.000,1,0,0.075,0.013,0.040,0.020,-0.060,-0.057,-0.128,0.993,0.008,0.010,-0.004,0.000,0.000,0.000,0.000,0,0,0,0,7,255,0,250,0,0
prep,1935,1935,0,66293.829,0.989,0.060,-0.037,0.127,1108,0,414,1707,3799,756,425,627,0,0.000,1,0,0.028,0.006,-0.020,0.020,0.000,-0.058,-0.129,0.994,0.000,0.006,-0.004,0.000,0.000,0.000,0.000,0,0,0,0,7,255,0,250,0,0
prep,1935,1935,0,66298.829,0.989,0.060,-0.037,0.127,1113,0,427,1719,3804,760,435,629,0,0.000,1,0,0.075,0.004,0.040,0.020,0.060,-0.057,-0.129,0.993,0.004,0.002,-0.004,0.000,0.000,0.000,0.000,0,0,0,0,7,255,0,250,0,0
prep,1935,1935,0,66303.829,0.989,0.060,-0.037,0.127,1109,0,421,1718,3789,772,435,633,0,0.000,1,0,0.045,0.003,-0.020,-0.040,0.000,-0.058,-0.129,0.994,0.002,0.002,0.002,0.000,0.000,0.000,0.000,0,0,0,0,7,255,0,250,0,0
prep,1952,1952,0,66308.830,0.989,0.060,-0.037,0.127,1109,0,415,1713,3801,759,429,631,0,0.000,1,0,0.028,0.007,-0.020,0.020,0.000,-0.057,-0.128,0.994,0.004,0.006,0.002,0.000,0.000,0.000,0.000,0,0,0,0,7,255,0,250,0,0
prep,1952,1952,0,66313.829,0.989,0.060,-0.037,0.127,1113,0,421,1720,3795,771,437,630,0,0.000,1,0,0.028,0.008,-0.020,0.020,0.000,-0.059,-0.129,0.994,0.002,0.008,0.002,0.000,0.000,0.000,0.000,0,0,0,0,7,255,0,250,0,0
prep,1952,1952,0,66318.829,0.989,0.060,-0.037,0.127,1097,0,414,1701,3787,760,419,621,0,0.000,1,0,0.082,0.011,-0.080,0.020,0.000,-0.059,-0.129,0.992,-0.008,0.008,0.002,0.000,0.000,0.000,0.000,0,0,0,0,7,255,0,250,0,0
prep,1952,1952,0,66323.829,0.989,0.060,-0.037,0.127,1111,0,423,1704,3793,759,435,627,0,0.000,1,0,0.028,0.011,-0.020,0.020,0.000,-0.058,-0.130,0.993,-0.008,0.008,0.000,0.000,0.000,0.000,0.000,0,0,0,0,7,255,0,250,0,0
prep,1952,1952,0,66328.829,0.989,0.060,-0.037,0.127,1111,0,423,1712,3799,759,436,634,0,0.000,1,0,0.028,0.010,-0.020,0.020,0.000,-0.058,-0.128,0.993,-0.006,0.008,-0.002,0.000,0.000,0.000,0.000,0,0,0,0,7,255,0,250,0,0
prep,1952,1952,0,66333.829,0.989,0.060,-0.037,0.127,1115,0,423,1715,3801,757,429,622,0,0.000,1,0,0.066,0.006,-0.020,0.020,-0.060,-0.058,-0.130,0.993,-0.006,-0.002,-0.002,0.000,0.000,0.000,0.000,0,0,0,0,7,255,0,250,0,0
prep,1967,1967,0,66338.829,0.989,0.060,-0.037,0.127,1107,0,420,1712,3799,759,435,634,0,0.000,1,0,0.045,0.007,-0.020,-0.040,0.000,-0.058,-0.129,0.994,-0.004,0.006,-0.002,0.000,0.000,0.000,0.000,0,0,0,0,7,255,0,250,0,0
prep,1967,1967,0,66343.829,0.989,0.060,-0.037,0.127,1103,0,423,1720,3801,765,437,631,0,0.000,1,0,0.075,0.007,-0.020,-0.040,-0.060,-0.057,-0.130,0.993,-0.004,-0.006,-0.002,0.000,0.000,0.000,0.000,0,0,0,0,7,255,0,250,0,0
prep,1984,1984,0,66348.829,0.989,0.060,-0.037,0.127,1112,0,425,1720,3806,761,429,633,0,0.000,1,0,0.066,0.004,-0.020,0.020,-0.060,-0.057,-0.129,0.994,0.004,0.000,0.004,0.000,0.000,0.000,0.000,0,0,0,0,7,255,0,250,0,0
prep,1984,1984,0,66353.829,0.989,0.060,-0.037,0.127,1103,0,423,1723,3800,764,435,626,0,0.000,1,0,0.075,0.008,-0.020,-0.040,-0.060,-0.057,-0.131,0.994,0.006,-0.006,0.004,0.000,0.000,0.000,0.000,0,0,0,0,7,255,0,250,0,0
prep,2000,2000,0,66358.829,0.989,0.060,-0.037,0.127,1107,0,425,1721,3803,759,439,629,0,0.000,1,0,0.108,0.004,-0.080,-0.040,-0.060,-0.058,-0.129,0.994,0.004,0.000,0.004,0.000,0.000,0.000,0.000,0,0,0,0,7,255,0,250,0,0
prep,2000,2000,0,66363.829,0.989,0.060,-0.037,0.127,1106,0,416,1711,3787,761,435,633,0,0.000,1,0,0.075,0.004,0.040,0.020,-0.060,-0.057,-0.129,0.993,0.004,-0.002,0.004,0.000,0.000,0.000,0.000,0,0,0,0,7,255,0,250,0,0
prep,2000,2000,0,66368.829,0.989,0.060,-0.037,0.127,1109,0,425,1719,3800,763,433,628,0,0.000,1,0,0.066,0.003,-0.020,0.020,-0.060,-0.057,-0.130,0.994,0.002,-0.002,0.004,0.000,0.000,0.000,0.000,0,0,0,0,7,255,0,250,0,0
prep,2000,2000,0,66373.829,0.989,0.060,-0.037,0.127,1109,0,422,1717,3784,759,429,633,0,0.000,1,0,0.128,0.007,0.040,0.020,-0.120,-0.057,-0.130,0.993,0.004,-0.006,0.000,0.000,0.000,0.000,0.000,0,0,0,0,7,255,0,250,0,0
prep,2048,2048,0,66378.829,0.989,0.060,-0.037,0.127,1103,0,425,1721,3797,761,429,629,0,0.000,1,0,0.066,0.007,-0.020,0.020,-0.060,-0.057,-0.129,0.994,0.004,-0.006,0.002,0.000,0.000,0.000,0.000,0,0,0,0,7,255,0,250,0,0
prep,2048,2048,0,66383.829,0.989,0.060,-0.037,0.127,1112,0,425,1719,3800,765,431,628,0,0.000,1,0,0.128,0.006,-0.020,-0.040,-0.120,-0.058,-0.130,0.993,0.004,-0.004,0.000,0.000,0.000,0.000,0.000,0,0,0,0,7,255,0,250,0,0
prep,2048,2048,0,66388.829,0.989,0.060,-0.037,0.127,1105,0,426,1721,3796,763,431,630,0,0.000,1,0,0.108,0.002,-0.080,-0.040,-0.060,-0.058,-0.130,0.994,0.000,-0.002,0.002,0.000,0.000,0.000,0.000,0,0,0,0,7,255,0,250,0,0
prep,2048,2048,0,66393.829,0.989,0.060,-0.037,0.127,1102,0,421,1719,3797,761,427,621,0,0.000,1,0,0.141,0.002,-0.080,-0.100,-0.060,-0.057,-0.128,0.993,0.000,-0.002,0.000,0.000,0.000,0.000,0.000,0,0,0,0,7,255,0,250,0,0
prep,2048,2048,0,66398.830,0.989,0.060,-0.037,0.127,1096,0,424,1712,3796,763,431,632,0,0.000,1,0,0.108,0.006,-0.080,-0.040,-0.060,-0.060,-0.129,0.994,0.000,0.006,0.008,0.000,0.000,0.000,0.000,0,0,0,0,7,255,0,250,0,0
prep,2048,2048,0,66403.829,0.989,0.060,-0.037,0.127,1105,0,423,1721,3796,773,435,631,0,0.000,1,0,0.150,0.008,-0.080,-0.040,-0.120,-0.057,-0.129,0.993,0.006,0.006,-0.002,0.000,0.000,0.000,0.000,0,0,0,0,7,255,0,250,0,0
prep,2048,2048,0,66408.829,0.989,0.060,-0.037,0.127,1111,0,423,1716,3799,760,435,635,0,0.000,1,0,0.146,0.007,-0.080,0.020,-0.120,-0.057,-0.129,0.994,0.006,0.004,0.002,0.000,0.000,0.000,0.000,0,0,0,0,7,255,0,250,0,0
prep,2048,2048,0,66413.829,0.989,0.060,-0.037,0.127,1101,0,427,1703,3799,763,429,631,0,0.000,1,0,0.146,0.007,-0.080,0.020,-0.120,-0.058,-0.129,0.995,0.006,0.004,0.002,0.000,0.000,0.000,0.000,0,0,0,0,7,255,0,250,0,0
prep,2049,2049,0,66418.829,0.989,0.060,-0.037,0.127,1103,0,427,1719,3808,759,435,631,0,0.000,1,0,0.146,0.004,-0.080,0.020,-0.120,-0.058,-0.130,0.993,-0.004,-0.002,0.002,0.000,0.000,0.000,0.000,0,0,0,0,7,255,0,250,0,0
prep,2049,2049,0,66423.829,0.989,0.060,-0.037,0.127,1093,0,415,1699,3795,746,424,623,0,0.000,1,0,0.075,0.006,-0.020,-0.040,-0.060,-0.058,-0.130,0.993,-0.006,-0.002,0.000,0.000,0.000,0.000,0.000,0,0,0,0,7,255,0,250,0,0
prep,2065,2065,0,66428.829,0.989,0.060,-0.037,0.127,1101,0,425,1715,3795,761,435,635,0,0.000,1,0,0.128,0.008,-0.020,-0.040,-0.120,-0.057,-0.130,0.993,-0.006,-0.006,0.000,0.000,0.000,0.000,0.000,0,0,0,0,7,255,0,250,0,0
prep,2065,2065,0,66433.829,0.989,0.060,-0.037,0.127,1100,0,426,1703,3793,765,432,630,0,0.000,1,0,0.123,0.006,-0.020,0.020,-0.120,-0.057,-0.131,0.993,0.000,-0.006,0.000,0.000,0.000,0.000,0.000,0,0,0,0,7,255,0,250,0,0
prep,2080,2080,0,66438.829,0.989,0.060,-0.037,0.127,1103,0,428,1723,3789,759,435,629,0,0.000,1,0,0.150,0.008,-0.080,-0.040,-0.120,-0.058,-0.130,0.994,0.000,-0.008,0.000,0.000,0.000,0.000,0.000,0,0,0,0,7,255,0,250,0,0
