condition_phase,condition_phase_elapsed_ms,condition_elapsed_ms,is_stimulation_on,t_ms,L_q0,L_q1,L_q2,L_q3,L_heel1,L_mid1,L_fore1,L_heel2,L_fore3,L_mid2,L_fore4,L_fore2,L_cadence,L_speed,L_steps,L_zupt,L_gyroNorm,L_accH,L_gyro_x,L_gyro_y,L_gyro_z,L_acc_x,L_acc_y,L_acc_z,L_nav_ax,L_nav_ay,L_nav_az,L_stepVel,L_stepVelj,L_stepDispRaw,L_stepDispZUPT,L_gaitEvent,L_motorMode,L_motorActive,L_motorAlignment,L_motorRegionMask,L_motorAmplitude,L_motorIntervalMs,L_motorDurationMs,L_motorPhaseMs,L_motorCycleMs
stim,16,16,0,640528.829,0.923,0.064,-0.046,-0.378,1996,26,101,2065,87,1047,74,551,1,0.000,3,0,0.255,0.020,-0.100,0.080,-0.220,-0.138,-0.084,0.992,0.020,-0.002,0.022,0.000,0.000,0.000,0.000,1,2,0,3,7,255,816,200,0,0
stim,16,16,0,640533.829,0.923,0.064,-0.046,-0.378,1991,29,104,2073,89,1050,71,548,1,0.000,3,0,0.606,0.031,-0.300,0.080,-0.520,-0.138,-0.083,0.992,0.016,-0.026,0.022,0.000,0.000,0.000,0.000,1,2,0,3,7,255,816,200,0,0
stim,54,54,0,640538.829,0.923,0.064,-0.046,-0.378,1994,24,103,2065,89,1045,75,555,1,0.000,3,0,0.794,0.031,-0.600,0.020,-0.520,-0.134,-0.079,0.990,0.016,-0.026,0.020,0.000,0.000,0.000,0.000,1,2,0,3,7,255,816,200,0,0
stim,54,54,0,640543.829,0.923,0.064,-0.046,-0.378,2007,25,103,2072,85,1043,73,553,1,0.000,3,0,0.621,0.024,-0.600,0.140,-0.080,-0.130,-0.073,0.985,0.014,0.020,-0.002,0.000,0.000,0.000,0.000,1,2,0,3,7,255,816,200,0,0
stim,54,54,0,640548.830,0.923,0.064,-0.046,-0.378,2003,30,105,2063,90,1049,75,551,1,0.000,3,0,0.574,0.078,0.320,0.260,0.400,-0.131,-0.071,0.986,0.000,0.078,-0.050,0.000,0.000,0.000,0.000,1,2,0,3,7,255,816,200,0,0
stim,54,54,0,640553.829,0.923,0.064,-0.046,-0.377,1995,25,93,2057,87,1045,76,547,1,0.000,3,0,0.875,0.078,0.740,0.320,0.340,-0.136,-0.082,0.995,0.000,0.078,-0.050,0.000,0.000,0.000,0.000,1,2,0,3,7,255,816,200,0,0
stim,54,54,0,640558.829,0.923,0.064,-0.046,-0.377,2005,30,105,2065,91,1055,76,551,1,0.000,3,0,0.753,0.023,-0.480,0.020,-0.580,-0.141,-0.093,0.998,0.022,-0.008,0.046,0.000,0.000,0.000,0.000,1,2,0,3,7,255,816,200,0,0
stim,54,54,0,640563.829,0.923,0.064,-0.046,-0.377,1991,30,105,2071,93,1049,72,551,1,0.000,3,0,1.603,0.023,-1.380,-0.420,-0.700,-0.136,-0.080,0.987,0.022,-0.008,0.046,0.000,0.000,0.000,0.000,1,2,0,3,7,255,816,200,0,0
stim,54,54,0,640568.829,0.923,0.064,-0.046,-0.377,2011,25,100,2067,99,1041,75,555,1,0.000,3,0,0.749,0.006,0.500,0.200,0.520,-0.133,-0.067,0.980,0.006,0.002,-0.028,0.000,0.000,0.000,0.000,1,2,0,3,7,255,816,200,0,0
stim,63,63,0,640573.829,0.923,0.064,-0.046,-0.377,2006,33,105,2063,91,1053,73,555,1,0.000,3,0,1.134,0.006,0.800,0.800,-0.080,-0.140,-0.091,0.997,0.006,0.002,-0.028,0.000,0.000,0.000,0.000,1,2,0,3,7,255,816,200,0,0
stim,63,63,0,640578.829,0.923,0.064,-0.046,-0.377,1991,27,99,2056,87,1043,71,547,1,0.000,3,0,2.252,0.058,-1.760,-0.660,-1.240,-0.132,-0.085,1.000,0.058,0.002,0.076,0.000,0.000,0.000,0.000,1,2,0,3,7,255,816,200,0,0
stim,63,63,0,640583.829,0.923,0.064,-0.046,-0.377,2003,30,101,2071,91,1054,73,550,1,0.000,3,0,1.111,0.058,0.140,-0.220,1.080,-0.130,-0.056,0.975,0.058,0.002,0.076,0.000,0.000,0.000,0.000,1,2,0,3,7,255,816,200,0,0
stim,63,63,0,640588.829,0.923,0.064,-0.046,-0.377,2008,33,102,2071,90,1045,75,553,1,0.000,3,0,1.900,0.076,1.000,1.600,-0.220,-0.149,-0.102,0.995,0.076,0.002,0.080,0.000,0.000,0.000,0.000,1,2,0,3,7,255,816,200,0,0
stim,63,63,0,640593.829,0.923,0.064,-0.046,-0.377,2013,27,101,2067,96,1048,72,552,1,0.000,3,0,3.191,0.115,-2.060,-1.500,-1.920,-0.125,-0.083,1.006,0.076,0.086,0.080,0.000,0.000,0.000,0.000,1,2,0,3,7,255,816,200,0,0
stim,63,63,0,640598.829,0.923,0.064,-0.046,-0.377,1999,33,103,2058,98,1041,75,553,1,0.000,3,0,2.661,0.115,1.060,0.320,2.420,-0.131,-0.050,0.964,0.076,0.086,0.080,0.000,0.000,0.000,0.000,1,2,0,3,7,255,816,200,0,0
stim,79,79,0,640603.829,0.923,0.064,-0.046,-0.377,1994,35,104,2067,89,1051,73,551,1,0.000,3,0,2.990,0.141,-0.660,1.960,-2.160,-0.153,-0.121,1.009,0.112,0.086,0.146,0.000,0.000,0.000,0.000,1,2,0,3,7,255,816,200,0,816
stim,79,79,0,640608.829,0.923,0.064,-0.046,-0.377,2008,27,106,2071,90,1048,75,547,1,0.000,3,0,3.340,0.208,-0.720,-3.220,0.520,-0.112,-0.046,0.993,-0.056,0.200,-0.028,0.000,0.000,0.000,0.000,1,2,0,3,7,255,816,200,0,816
stim,15,15,0,640613.829,0.923,0.064,-0.046,-0.377,1992,27,103,2071,88,1051,79,555,1,0.000,3,0,3.622,0.327,0.680,3.500,0.640,-0.159,-0.100,0.964,-0.022,-0.326,-0.028,0.000,0.000,0.000,0.000,1,2,0,1,7,255,1224,300,3,1224
stim,15,15,0,640618.829,0.923,0.064,-0.046,-0.377,2009,29,105,2076,93,1046,72,552,1,0.000,3,0,3.205,0.201,-1.320,-2.300,-1.800,-0.116,-0.080,1.032,-0.022,0.200,-0.028,0.000,0.000,0.000,0.000,1,2,0,1,7,255,1224,300,8,1224
stim,15,15,0,640623.829,0.923,0.064,-0.046,-0.377,2007,33,102,2071,91,1052,67,551,1,0.000,3,0,2.419,0.100,0.740,0.800,2.160,-0.149,-0.071,0.944,-0.022,-0.098,-0.202,0.000,0.000,0.000,0.000,1,2,0,1,7,255,1224,300,13,1224
stim,15,15,0,640628.829,0.923,0.064,-0.046,-0.377,1996,35,107,2071,87,1043,73,555,1,0.000,3,0,2.751,0.159,-1.080,0.800,-2.400,-0.127,-0.095,1.029,0.158,0.016,0.376,0.000,0.000,0.000,0.000,1,2,0,1,7,255,1224,300,18,1224
stim,31,31,0,640633.829,0.923,0.064,-0.046,-0.377,1999,33,102,2077,97,1052,75,555,1,0.000,3,0,2.926,0.152,0.620,-1.700,2.300,-0.143,-0.065,0.960,-0.152,0.010,-0.288,0.000,0.000,0.000,0.000,1,2,0,1,7,255,1224,300,23,1224
stim,31,31,0,640638.829,0.923,0.064,-0.046,-0.377,2009,27,109,2079,90,1049,75,549,1,0.000,3,0,3.071,0.160,-0.780,2.100,-2.100,-0.130,-0.095,1.009,0.160,0.010,0.190,0.000,0.000,0.000,0.000,1,2,0,1,7,255,1224,300,28,1224
stim,63,63,0,640643.829,0.923,0.064,-0.046,-0.377,2001,29,99,2067,88,1052,78,553,1,0.000,3,0,2.520,0.106,0.440,-1.880,1.620,-0.143,-0.071,0.976,-0.106,-0.006,-0.132,0.000,0.000,0.000,0.000,1,2,0,1,7,255,1224,300,33,1224
stim,63,63,0,640648.831,0.923,0.064,-0.046,-0.377,2003,27,107,2065,93,1047,75,554,1,0.000,3,0,1.727,0.104,-0.540,1.300,-1.000,-0.129,-0.086,1.001,0.104,-0.006,0.102,0.000,0.000,0.000,0.000,1,2,0,1,7,255,1224,300,38,1224
stim,63,63,0,640653.829,0.923,0.064,-0.046,-0.377,2003,31,107,2067,88,1050,73,553,1,0.000,3,0,0.697,0.023,0.200,-0.660,0.100,-0.145,-0.084,0.981,-0.022,-0.006,-0.066,0.000,0.000,0.000,0.000,1,2,0,1,7,255,1224,300,43,1224
stim,63,63,0,640658.829,0.923,0.064,-0.046,-0.377,2011,33,101,2059,93,1039,78,553,1,0.000,3,0,0.661,0.026,-0.160,-0.040,0.640,-0.127,-0.070,0.998,0.004,0.026,0.058,0.000,0.000,0.000,0.000,1,2,0,1,7,255,1224,300,48,1224
stim,63,63,0,640663.829,0.923,0.064,-0.046,-0.377,2011,33,107,2075,91,1055,72,552,1,0.000,3,0,1.579,0.096,-0.220,0.440,-1.500,-0.142,-0.098,0.985,0.004,-0.096,-0.022,0.000,0.000,0.000,0.000,1,2,0,1,7,255,1224,300,53,1224
stim,63,63,0,640668.829,0.923,0.064,-0.046,-0.377,1995,29,107,2067,93,1051,72,553,1,0.000,3,0,1.761,0.142,0.200,-0.660,1.620,-0.133,-0.061,0.989,0.004,0.142,-0.022,0.000,0.000,0.000,0.000,1,2,0,1,7,255,1224,300,58,1224
stim,79,79,0,640673.829,0.923,0.064,-0.046,-0.377,1999,29,101,2075,87,1044,77,549,1,0.000,3,0,1.369,0.135,-0.480,0.500,-1.180,-0.135,-0.097,0.996,0.090,-0.100,-0.022,0.000,0.000,0.000,0.000,1,2,0,1,7,255,1224,300,63,1224
stim,79,79,0,640678.829,0.923,0.064,-0.046,-0.377,2003,33,101,2067,89,1049,77,553,1,0.000,3,0,0.441,0.058,0.260,-0.220,0.280,-0.138,-0.073,0.983,-0.054,0.022,-0.032,0.000,0.000,0.000,0.000,1,2,0,1,7,255,1224,300,68,1224
stim,79,79,0,640683.829,0.923,0.064,-0.046,-0.377,1991,31,103,2055,90,1043,74,549,1,0.000,3,0,0.719,0.028,-0.040,-0.160,0.700,-0.131,-0.076,0.995,0.018,0.022,0.034,0.000,0.000,0.000,0.000,1,2,0,1,7,255,1224,300,73,1224
stim,79,79,0,640688.829,0.923,0.064,-0.046,-0.377,2003,34,103,2057,98,1042,77,553,1,0.000,3,0,0.965,0.028,-0.300,0.260,-0.880,-0.140,-0.096,0.991,0.018,0.022,0.024,0.000,0.000,0.000,0.000,1,2,0,1,7,255,1224,300,78,1224
stim,95,95,0,640693.829,0.923,0.064,-0.046,-0.377,2009,35,101,2057,93,1045,79,557,1,0.000,3,0,0.645,0.074,0.260,-0.280,0.520,-0.133,-0.068,0.985,0.018,0.072,0.024,0.000,0.000,0.000,0.000,1,2,0,1,7,255,1224,300,83,1224
stim,95,95,0,640698.829,0.923,0.064,-0.046,-0.377,1998,29,104,2059,93,1041,73,553,1,0.000,3,0,0.587,0.034,0.080,-0.040,0.580,-0.134,-0.081,0.995,0.032,0.012,0.024,0.000,0.000,0.000,0.000,1,2,0,1,7,255,1224,300,88,1224
stim,95,95,0,640703.829,0.923,0.064,-0.046,-0.377,1999,28,105,2070,101,1045,76,555,1,0.000,3,0,0.606,0.034,-0.300,0.080,-0.520,-0.138,-0.093,0.991,0.032,0.012,0.020,0.000,0.000,0.000,0.000,1,2,0,1,7,255,1224,300,93,1224
stim,95,95,0,640708.829,0.923,0.064,-0.046,-0.377,2006,26,106,2063,102,1044,75,552,1,0.000,3,0,0.284,0.034,0.080,-0.160,0.220,-0.133,-0.072,0.983,0.032,0.012,0.020,0.000,0.000,0.000,0.000,1,2,0,1,7,255,1224,300,98,1224
stim,111,111,0,640713.829,0.923,0.064,-0.046,-0.377,2007,27,106,2081,88,1046,75,544,1,0.000,3,0,0.783,0.030,0.440,-0.100,0.640,-0.136,-0.077,0.994,-0.014,0.026,0.020,0.000,0.000,0.000,0.000,1,2,0,1,7,255,1224,300,103,1224
stim,111,111,0,640718.829,0.923,0.064,-0.046,-0.377,2008,35,109,2077,91,1046,77,549,1,0.000,3,0,0.311,0.030,-0.300,0.020,-0.080,-0.138,-0.092,0.996,-0.014,0.026,0.034,0.000,0.000,0.000,0.000,1,2,0,1,7,255,1224,300,108,1224
stim,127,127,0,640723.829,0.923,0.064,-0.046,-0.377,1999,30,101,2071,97,1049,79,555,1,0.000,3,0,0.349,0.028,-0.300,-0.160,-0.080,-0.133,-0.077,0.985,0.010,0.026,0.034,0.000,0.000,0.000,0.000,1,2,0,1,7,255,1224,300,113,1224
stim,127,127,0,640728.829,0.923,0.064,-0.046,-0.377,2005,29,109,2057,91,1051,75,551,1,0.000,3,0,0.862,0.035,0.680,-0.100,0.520,-0.133,-0.069,0.988,0.010,0.034,-0.034,0.000,0.000,0.000,0.000,1,2,0,1,7,255,1224,300,118,1224
stim,127,127,0,640733.829,0.923,0.064,-0.046,-0.377,2007,31,102,2045,99,1045,75,551,1,0.000,3,0,0.430,0.035,0.260,-0.040,0.340,-0.139,-0.086,0.998,0.010,0.034,-0.034,0.000,0.000,0.000,0.000,1,2,0,1,7,255,1224,300,123,1224
stim,127,127,0,640738.831,0.923,0.064,-0.046,-0.377,2007,27,101,2046,88,1051,77,553,1,0.000,3,0,0.740,0.064,-0.720,-0.100,-0.140,-0.137,-0.088,0.990,0.038,-0.052,0.010,0.000,0.000,0.000,0.000,1,2,0,1,7,255,1224,300,128,1224
stim,162,162,0,640743.829,0.923,0.064,-0.046,-0.377,2010,30,102,2054,85,1055,77,555,1,0.000,3,0,0.173,0.064,-0.100,-0.100,0.100,-0.132,-0.075,0.981,0.038,-0.052,0.010,0.000,0.000,0.000,0.000,1,2,0,1,7,255,1224,300,133,1224
stim,162,162,0,640748.829,0.923,0.064,-0.046,-0.377,2001,27,106,2063,79,1043,76,552,1,0.000,3,0,1.082,0.048,1.000,-0.100,0.400,-0.134,-0.075,0.992,-0.006,0.048,0.010,0.000,0.000,0.000,0.000,1,2,0,1,7,255,1224,300,138,1224
stim,163,163,0,640753.829,0.923,0.064,-0.046,-0.377,1999,29,106,2067,91,1047,73,551,1,0.000,3,0,0.314,0.048,0.200,-0.100,0.220,-0.138,-0.082,0.999,-0.006,0.048,0.014,0.000,0.000,0.000,0.000,1,2,0,1,7,255,1224,300,143,1224
stim,163,163,0,640758.829,0.923,0.064,-0.046,-0.377,1999,25,106,2071,91,1049,75,548,1,0.000,3,0,0.918,0.019,-0.900,-0.160,-0.080,-0.136,-0.083,0.992,0.010,-0.016,0.022,0.000,0.000,0.000,0.000,1,2,0,1,7,255,1224,300,148,1224
stim,163,163,0,640763.829,0.923,0.064,-0.046,-0.377,1999,27,113,2073,91,1047,76,550,1,0.000,3,0,0.319,0.038,-0.300,-0.100,0.040,-0.133,-0.082,0.982,0.034,-0.016,0.022,0.000,0.000,0.000,0.000,1,2,0,1,7,255,1224,300,153,1224
stim,163,163,0,640768.829,0.923,0.064,-0.046,-0.377,2003,36,103,2069,91,1047,77,552,1,0.000,3,0,0.830,0.035,0.740,-0.160,0.340,-0.135,-0.081,0.987,0.034,-0.006,-0.026,0.000,0.000,0.000,0.000,1,2,0,1,7,255,1224,300,158,1224
stim,163,163,0,640773.829,0.923,0.064,-0.046,-0.377,2012,33,102,2057,87,1042,76,550,1,0.000,3,0,0.610,0.018,0.560,-0.100,0.220,-0.138,-0.077,0.997,0.018,-0.004,-0.026,0.000,0.000,0.000,0.000,1,2,0,1,7,255,1224,300,163,1224
stim,176,176,0,640778.829,0.923,0.064,-0.046,-0.377,1984,26,103,2053,87,1045,71,544,1,0.000,3,0,0.412,0.023,-0.300,-0.040,-0.280,-0.136,-0.077,0.996,-0.014,0.018,0.050,0.000,0.000,0.000,0.000,1,2,0,1,7,255,1224,300,168,1224
stim,192,192,0,640783.829,0.923,0.064,-0.046,-0.377,1997,35,104,2071,87,1059,75,555,1,0.000,3,0,0.616,0.023,-0.600,0.020,-0.140,-0.132,-0.082,0.987,-0.014,0.018,0.050,0.000,0.000,0.000,0.000,1,2,0,1,7,255,1224,300,173,1224
stim,192,192,0,640788.829,0.923,0.064,-0.046,-0.377,1992,34,103,2065,89,1044,79,555,1,0.000,3,0,0.433,0.051,-0.040,-0.160,0.400,-0.133,-0.087,0.985,0.050,0.008,-0.030,0.000,0.000,0.000,0.000,1,2,0,1,7,255,1224,300,178,1224
stim,192,192,0,640793.829,0.923,0.064,-0.046,-0.377,2003,25,107,2075,85,1044,75,552,1,0.000,3,0,0.772,0.053,0.500,-0.100,0.580,-0.138,-0.080,0.989,0.050,-0.018,-0.030,0.000,0.000,0.000,0.000,1,2,0,1,7,255,1224,300,183,1224
stim,192,192,0,640798.829,0.923,0.064,-0.047,-0.377,2001,31,105,2068,88,1051,73,550,1,0.000,3,0,0.449,0.020,0.440,-0.040,-0.080,-0.140,-0.075,0.993,-0.008,-0.018,-0.004,0.000,0.000,0.000,0.000,1,2,0,1,7,255,1224,300,188,1224
stim,208,208,0,640803.829,0.923,0.064,-0.047,-0.377,1989,28,105,2065,91,1057,77,544,1,0.000,3,0,0.522,0.014,0.020,-0.040,-0.520,-0.134,-0.078,0.994,-0.008,0.012,0.030,0.000,0.000,0.000,0.000,1,2,0,1,7,255,1224,300,193,1224
stim,208,208,0,640808.829,0.923,0.064,-0.047,-0.377,2004,31,107,2069,88,1043,73,554,1,0.000,3,0,0.326,0.023,-0.300,-0.100,-0.080,-0.130,-0.083,0.992,0.006,0.022,0.030,0.000,0.000,0.000,0.000,1,2,0,1,7,255,1224,300,198,1224
stim,228,228,0,640813.829,0.923,0.064,-0.047,-0.377,1993,29,107,2069,88,1046,74,551,1,0.000,3,0,0.628,0.042,-0.220,-0.100,0.580,-0.133,-0.082,0.988,0.036,0.022,0.010,0.000,0.000,0.000,0.000,1,2,0,1,7,255,1224,300,203,1224
stim,228,228,0,640818.829,0.923,0.064,-0.047,-0.377,1989,27,103,2065,91,1053,79,555,1,0.000,3,0,0.477,0.036,0.080,-0.100,0.460,-0.138,-0.079,0.989,0.036,0.004,-0.010,0.000,0.000,0.000,0.000,1,2,0,1,7,255,1224,300,208,1224
stim,228,228,0,640823.829,0.923,0.064,-0.047,-0.377,1997,35,102,2057,87,1047,73,558,1,0.000,3,0,0.166,0.014,0.080,-0.040,-0.140,-0.139,-0.078,0.992,-0.014,0.000,-0.010,0.000,0.000,0.000,0.000,1,2,0,1,7,255,1224,300,213,1224
stim,228,228,0,640828.829,0.923,0.064,-0.046,-0.377,1987,29,103,2057,87,1045,72,551,1,0.000,3,0,0.402,0.014,-0.040,0.020,-0.400,-0.135,-0.080,0.992,-0.014,0.000,0.018,0.000,0.000,0.000,0.000,1,2,0,1,7,255,1224,300,218,1224
stim,228,228,0,640833.829,0.923,0.064,-0.046,-0.377,1990,29,102,2045,87,1043,73,547,1,0.000,3,0,0.115,0.015,-0.100,-0.040,0.040,-0.132,-0.082,0.989,0.014,0.006,0.018,0.000,0.000,0.000,0.000,1,2,0,1,7,255,1224,300,223,1224
stim,260,260,0,640838.829,0.923,0.064,-0.046,-0.377,2007,34,107,2058,85,1049,75,553,1,0.000,3,0,0.413,0.016,-0.100,0.020,0.400,-0.135,-0.079,0.990,0.014,0.008,-0.004,0.000,0.000,0.000,0.000,1,2,0,1,7,255,1224,300,228,1224
stim,260,260,0,640843.829,0.923,0.064,-0.046,-0.377,2005,30,103,2057,87,1046,74,551,1,0.000,3,0,0.284,0.010,-0.040,0.020,0.280,-0.138,-0.078,0.991,0.006,0.008,-0.004,0.000,0.000,0.000,0.000,1,2,0,1,7,255,1224,300,233,1224
stim,260,260,0,640848.829,0.923,0.064,-0.046,-0.377,1991,29,103,2053,87,1045,71,549,1,0.000,3,0,0.224,0.004,-0.040,0.020,-0.220,-0.137,-0.080,0.992,0.000,0.004,0.006,0.000,0.000,0.000,0.000,1,2,0,1,7,255,1224,300,238,1224
stim,260,260,0,640853.829,0.923,0.064,-0.046,-0.377,1984,28,108,2067,89,1053,77,551,1,0.000,3,0,0.300,0.004,-0.100,-0.040,-0.280,-0.134,-0.080,0.991,0.000,0.004,0.006,0.000,0.000,0.000,0.000,1,2,0,1,7,255,1224,300,243,1224
stim,261,261,0,640858.829,0.923,0.064,-0.046,-0.377,1997,35,105,2045,88,1059,75,553,1,0.000,3,0,0.166,0.016,-0.160,-0.040,-0.020,-0.133,-0.083,0.990,0.016,0.000,0.004,0.000,0.000,0.000,0.000,1,2,0,1,7,255,1224,300,248,1224
stim,261,261,0,640863.829,0.923,0.064,-0.046,-0.377,1992,29,107,2071,87,1051,76,555,1,0.000,3,0,0.227,0.016,-0.160,0.020,0.160,-0.135,-0.080,0.991,0.016,0.004,0.004,0.000,0.000,0.000,0.000,1,2,0,1,7,255,1224,300,253,1224
stim,293,293,0,640868.829,0.923,0.064,-0.046,-0.377,1995,36,103,2056,87,1047,71,552,1,0.000,3,0,0.110,0.012,-0.100,0.020,0.040,-0.137,-0.080,0.990,0.012,0.000,0.002,0.000,0.000,0.000,0.000,1,2,0,1,7,255,1224,300,258,1224
stim,293,293,0,640873.829,0.923,0.064,-0.046,-0.377,2000,35,103,2057,91,1048,77,553,1,0.000,3,0,0.151,0.008,-0.100,0.080,-0.080,-0.136,-0.080,0.990,0.008,0.000,0.002,0.000,0.000,0.000,0.000,1,2,0,1,7,255,1224,300,263,1224
stim,293,293,0,640878.829,0.923,0.064,-0.046,-0.377,1989,35,103,2045,89,1043,74,549,1,0.000,3,0,0.151,0.008,-0.100,0.080,-0.080,-0.135,-0.081,0.990,0.008,0.000,0.000,0.000,0.000,0.000,0.000,1,2,0,1,7,255,1224,300,268,1224
stim,293,293,0,640883.829,0.923,0.064,-0.046,-0.377,1993,33,103,2063,91,1045,77,553,1,0.000,3,0,0.104,0.009,-0.100,0.020,-0.020,-0.135,-0.079,0.992,0.008,0.004,0.000,0.000,0.000,0.000,0.000,1,2,0,1,7,255,1224,300,273,1224
stim,293,293,0,640888.829,0.923,0.064,-0.046,-0.377,1997,27,107,2067,89,1046,73,552,1,0.000,3,0,0.162,0.009,-0.160,0.020,-0.020,-0.136,-0.080,0.990,0.008,0.004,0.000,0.000,0.000,0.000,0.000,1,2,0,1,7,255,1224,300,278,1224
stim,293,293,0,640893.829,0.923,0.064,-0.046,-0.377,1997,37,107,2057,91,1059,73,549,1,0.000,3,0,0.279,0.013,-0.240,0.140,-0.020,-0.135,-0.079,0.991,0.004,0.012,0.004,0.000,0.000,0.000,0.000,1,2,0,1,7,255,1224,300,283,1224
stim,294,294,0,640898.829,0.923,0.064,-0.046,-0.377,2009,35,104,2055,92,1041,72,557,1,0.000,3,0,0.196,0.004,-0.160,0.080,-0.080,-0.135,-0.081,0.991,0.004,0.002,0.004,0.000,0.000,0.000,0.000,1,2,0,1,7,255,1224,300,288,1224
stim,294,294,0,640903.829,0.923,0.064,-0.046,-0.377,1999,34,101,2067,89,1045,76,552,1,0.000,3,0,0.130,0.011,-0.100,0.020,-0.080,-0.135,-0.080,0.990,0.010,0.004,0.004,0.000,0.000,0.000,0.000,1,2,0,1,7,255,1224,300,293,1224
stim,305,305,0,640908.830,0.923,0.064,-0.046,-0.377,2009,24,105,2067,89,1043,77,557,1,0.000,3,0,0.092,0.013,-0.040,0.020,-0.080,-0.135,-0.080,0.990,0.012,0.004,0.000,0.000,0.000,0.000,0.000,1,2,0,1,7,255,1224,300,298,1224
stim,305,305,0,640913.829,0.923,0.064,-0.046,-0.377,2001,31,105,2056,94,1045,73,553,1,0.000,3,0,0.196,0.013,-0.160,0.080,-0.080,-0.135,-0.080,0.992,0.010,0.008,0.000,0.000,0.000,0.000,0.000,1,2,0,1,7,255,1224,300,303,1224
stim,319,319,0,640918.829,0.923,0.064,-0.046,-0.377,1992,33,104,2069,90,1049,81,549,1,0.000,3,0,0.180,0.014,-0.160,0.020,-0.080,-0.135,-0.081,0.991,0.012,0.008,0.004,0.000,0.000,0.000,0.000,1,2,0,1,7,255,1224,300,308,1224
stim,319,319,0,640923.829,0.923,0.064,-0.046,-0.377,2009,30,105,2056,92,1053,74,555,1,0.000,3,0,0.162,0.013,-0.160,0.020,-0.020,-0.135,-0.080,0.990,0.010,0.008,0.004,0.000,0.000,0.000,0.000,1,2,0,1,7,255,1224,300,313,1224
stim,336,336,0,640928.829,0.923,0.064,-0.046,-0.377,2001,33,104,2056,91,1047,71,550,1,0.000,3,0,0.104,0.006,-0.100,0.020,-0.020,-0.136,-0.080,0.990,0.006,0.002,0.000,0.000,0.000,0.000,0.000,1,2,0,1,7,255,1224,300,318,1224
stim,336,336,0,640933.829,0.923,0.064,-0.046,-0.377,2005,28,107,2067,87,1045,77,553,1,0.000,3,0,0.196,0.010,-0.160,0.080,-0.080,-0.134,-0.080,0.990,0.006,0.008,0.000,0.000,0.000,0.000,0.000,1,2,0,1,7,255,1224,300,323,1224
stim,336,336,0,640938.829,0.923,0.064,-0.046,-0.377,1989,29,101,2053,87,1045,73,549,1,0.000,3,0,0.196,0.014,-0.160,0.080,-0.080,-0.135,-0.081,0.991,0.014,0.002,0.000,0.000,0.000,0.000,0.000,1,2,0,1,7,255,1224,300,328,1224
stim,336,336,0,640943.829,0.923,0.064,-0.046,-0.377,1991,33,107,2056,95,1049,73,552,1,0.000,3,0,0.196,0.020,-0.160,0.080,-0.080,-0.134,-0.081,0.990,0.018,0.008,-0.002,0.000,0.000,0.000,0.000,1,2,0,1,7,255,1224,300,333,1224
stim,367,367,0,640948.829,0.923,0.064,-0.046,-0.377,2007,27,107,2063,89,1049,77,553,1,0.000,3,0,0.130,0.014,-0.100,0.020,-0.080,-0.135,-0.081,0.990,0.014,0.002,0.000,0.000,0.000,0.000,0.000,1,2,0,1,7,255,1224,300,338,1224
stim,367,367,0,640953.829,0.923,0.064,-0.046,-0.377,2006,35,104,2063,87,1043,79,555,1,0.000,3,0,0.130,0.010,-0.100,0.080,-0.020,-0.135,-0.081,0.990,0.010,0.002,-0.002,0.000,0.000,0.000,0.000,1,2,0,1,7,255,1224,300,343,1224
stim,367,367,0,640958.829,0.923,0.064,-0.046,-0.377,1992,28,104,2056,90,1048,75,544,1,0.000,3,0,0.104,0.010,-0.100,0.020,-0.020,-0.136,-0.080,0.990,0.010,0.002,0.000,0.000,0.000,0.000,0.000,1,2,0,1,7,255,1224,300,348,1224
stim,367,367,0,640963.829,0.923,0.064,-0.046,-0.377,1984,27,107,2067,87,1047,75,553,1,0.000,3,0,0.242,0.010,-0.240,0.020,-0.020,-0.134,-0.080,0.990,0.010,0.002,-0.004,0.000,0.000,0.000,0.000,1,2,0,1,7,255,1224,300,353,1224
stim,367,367,0,640968.829,0.923,0.064,-0.046,-0.377,1984,29,103,2063,91,1049,77,555,1,0.000,3,0,0.162,0.007,-0.160,0.020,-0.020,-0.135,-0.080,0.990,0.006,0.004,-0.004,0.000,0.000,0.000,0.000,1,2,0,1,7,255,1224,300,358,1224
stim,367,367,0,640973.829,0.923,0.064,-0.046,-0.377,1995,29,107,2071,89,1046,75,551,1,0.000,3,0,0.110,0.007,-0.100,0.020,0.040,-0.136,-0.080,0.989,0.006,0.004,-0.006,0.000,0.000,0.000,0.000,1,2,0,1,7,255,1224,300,363,1224
stim,384,384,0,640978.829,0.923,0.064,-0.046,-0.377,2013,35,105,2057,93,1046,72,553,1,0.000,3,0,0.060,0.006,-0.040,0.020,0.040,-0.135,-0.082,0.990,0.006,0.000,-0.004,0.000,0.000,0.000,0.000,1,2,0,1,7,255,1224,300,368,1224
stim,384,384,0,640983.829,0.923,0.064,-0.046,-0.377,2011,35,103,2063,89,1041,73,551,1,0.000,3,0,0.060,0.008,-0.040,0.020,0.040,-0.135,-0.081,0.990,0.008,0.000,-0.004,0.000,0.000,0.000,0.000,1,2,0,1,7,255,1224,300,373,1224
stim,384,384,0,640988.829,0.923,0.064,-0.046,-0.377,1998,34,101,2066,90,1045,81,553,1,0.000,3,0,0.183,0.009,-0.160,0.080,0.040,-0.136,-0.081,0.990,0.008,-0.004,-0.002,0.000,0.000,0.000,0.000,1,2,0,1,7,255,1224,300,378,1224
stim,384,384,0,640993.829,0.923,0.064,-0.046,-0.377,1993,35,104,2073,91,1051,73,561,1,0.000,3,0,0.060,0.008,-0.040,0.020,0.040,-0.135,-0.080,0.989,0.008,0.002,-0.004,0.000,0.000,0.000,0.000,1,2,0,1,7,255,1224,300,383,1224
stim,399,399,0,640998.829,0.923,0.064,-0.046,-0.377,1989,28,103,2045,91,1045,73,549,1,0.000,3,0,0.110,0.009,-0.100,0.020,0.040,-0.135,-0.081,0.989,0.008,0.004,-0.010,0.000,0.000,0.000,0.000,1,2,0,1,7,255,1224,300,388,1224
stim,399,399,0,641003.829,0.923,0.064,-0.046,-0.377,1992,29,103,2071,93,1045,77,555,1,0.000,3,0,0.104,0.009,-0.100,0.020,-0.020,-0.136,-0.081,0.990,0.008,0.004,-0.010,0.000,0.000,0.000,0.000,1,2,0,1,7,255,1224,300,393,1224
stim,415,415,0,641008.829,0.923,0.064,-0.046,-0.377,1993,37,101,2055,95,1045,73,555,1,0.000,3,0,0.069,0.008,-0.040,-0.040,0.040,-0.136,-0.080,0.990,0.008,0.002,-0.004,0.000,0.000,0.000,0.000,1,2,0,1,7,255,1224,300,398,1224
stim,415,415,0,641013.829,0.923,0.064,-0.046,-0.377,1984,30,107,2067,95,1044,75,550,1,0.000,3,0,0.060,0.008,-0.040,-0.040,-0.020,-0.135,-0.081,0.990,0.008,0.002,0.000,0.000,0.000,0.000,0.000,1,2,0,1,7,255,1224,300,403,1224
stim,415,415,0,641018.829,0.923,0.064,-0.046,-0.377,2006,33,105,2056,89,1045,77,556,1,0.000,3,0,0.060,0.008,-0.040,0.020,0.040,-0.135,-0.081,0.990,0.008,0.002,0.000,0.000,0.000,0.000,0.000,1,2,0,1,7,255,1224,300,408,1224
stim,415,415,0,641023.829,0.923,0.064,-0.046,-0.377,1991,27,106,2073,99,1049,79,553,1,0.000,3,0,0.069,0.008,-0.040,-0.040,0.040,-0.135,-0.079,0.990,0.008,0.002,0.000,0.000,0.000,0.000,0.000,1,2,0,1,7,255,1224,300,413,1224
stim,432,432,0,641028.829,0.923,0.064,-0.046,-0.377,2007,25,107,2071,89,1044,77,553,1,0.000,3,0,0.104,0.006,-0.100,0.020,-0.020,-0.135,-0.081,0.990,0.006,0.002,0.000,0.000,0.000,0.000,0.000,1,2,0,1,7,255,1224,300,418,1224
stim,432,432,0,641033.829,0.923,0.064,-0.046,-0.377,1997,29,107,2063,91,1043,76,551,1,0.000,3,0,0.049,0.002,-0.040,0.020,-0.020,-0.136,-0.081,0.989,0.000,0.002,-0.004,0.000,0.000,0.000,0.000,1,2,0,1,7,255,1224,300,423,1224
stim,463,463,0,641038.829,0.923,0.064,-0.046,-0.377,2001,31,107,2056,101,1049,73,549,1,0.000,3,0,0.110,0.006,-0.100,0.020,0.040,-0.135,-0.080,0.991,0.006,0.002,-0.004,0.000,0.000,0.000,0.000,1,2,0,1,7,255,1224,300,428,1224
stim,463,463,0,641043.829,0.923,0.064,-0.046,-0.377,2011,27,105,2066,91,1049,77,551,1,0.000,3,0,0.115,0.013,-0.100,-0.040,0.040,-0.134,-0.080,0.990,0.008,0.010,-0.006,0.000,0.000,0.000,0.000,1,2,0,1,7,255,1224,300,433,1224
stim,463,463,0,641048.829,0.923,0.064,-0.046,-0.377,2005,29,103,2071,89,1047,75,549,1,0.000,3,0,0.110,0.014,-0.040,0.020,0.100,-0.135,-0.080,0.990,0.008,0.012,0.000,0.000,0.000,0.000,0.000,1,2,0,1,7,255,1224,300,438,1224
stim,463,463,0,641053.830,0.923,0.064,-0.046,-0.377,1993,27,102,2072,93,1047,83,549,1,0.000,3,0,0.143,0.018,-0.100,0.020,0.100,-0.135,-0.082,0.990,0.014,0.012,-0.004,0.000,0.000,0.000,0.000,1,2,0,1,7,255,1224,300,443,1224
stim,479,479,0,641058.829,0.923,0.064,-0.046,-0.377,2003,33,107,2059,89,1053,77,552,1,0.000,3,0,0.060,0.004,-0.040,0.020,0.040,-0.136,-0.080,0.991,0.002,0.004,0.000,0.000,0.000,0.000,0.000,1,2,0,1,7,255,1224,300,448,1224
stim,479,479,0,641063.829,0.923,0.064,-0.046,-0.377,2011,33,106,2063,89,1043,79,544,1,0.000,3,0,0.069,0.004,-0.040,-0.040,0.040,-0.135,-0.080,0.989,0.002,0.004,-0.004,0.000,0.000,0.000,0.000,1,2,0,1,7,255,1224,300,453,1224
stim,479,479,0,641068.829,0.923,0.064,-0.046,-0.377,2006,35,105,2068,99,1053,78,555,1,0.000,3,0,0.110,0.006,-0.040,0.020,0.100,-0.135,-0.080,0.990,0.002,0.006,0.000,0.000,0.000,0.000,0.000,1,2,0,1,7,255,1224,300,458,1224
stim,479,479,0,641073.829,0.923,0.064,-0.046,-0.377,1991,27,105,2057,91,1050,82,553,1,0.000,3,0,0.110,0.006,0.020,-0.040,0.100,-0.136,-0.081,0.990,0.002,0.006,-0.004,0.000,0.000,0.000,0.000,1,2,0,1,7,255,1224,300,463,1224
stim,479,479,0,641078.829,0.923,0.064,-0.046,-0.377,1997,28,106,2065,92,1044,73,548,1,0.000,3,0,0.049,0.004,0.020,0.020,0.040,-0.135,-0.081,0.990,0.002,0.004,0.000,0.000,0.000,0.000,0.000,1,2,0,1,7,255,1224,300,468,1224
stim,479,479,0,641083.829,0.923,0.064,-0.046,-0.377,2005,31,104,2065,91,1049,76,555,1,0.000,3,0,0.110,0.006,0.020,-0.040,0.100,-0.135,-0.080,0.990,0.004,0.004,0.000,0.000,0.000,0.000,0.000,1,2,0,1,7,255,1224,300,473,1224
stim,479,479,0,641088.829,0.923,0.064,-0.046,-0.377,1995,27,107,2063,92,1043,83,550,1,0.000,3,0,0.110,0.007,0.020,-0.040,0.100,-0.135,-0.080,0.990,0.004,0.006,0.000,0.000,0.000,0.000,0.000,1,2,0,1,7,255,1224,300,478,1224
stim,479,479,0,641093.829,0.923,0.064,-0.046,-0.377,1990,27,101,2067,87,1045,79,551,1,0.000,3,0,0.115,0.006,-0.040,-0.040,0.100,-0.137,-0.081,0.990,0.002,0.006,0.000,0.000,0.000,0.000,0.000,1,2,0,1,7,255,1224,300,483,1224
stim,498,498,0,641098.829,0.923,0.064,-0.046,-0.377,1994,27,109,2075,93,1055,77,549,1,0.000,3,0,0.147,0.004,-0.040,-0.100,0.100,-0.136,-0.081,0.990,-0.002,-0.004,-0.002,0.000,0.000,0.000,0.000,1,2,0,1,7,255,1224,300,488,1224
stim,498,498,0,641103.829,0.923,0.064,-0.046,-0.377,1993,29,105,2071,91,1047,79,557,1,0.000,3,0,0.060,0.004,0.020,-0.040,0.040,-0.136,-0.080,0.991,-0.002,-0.004,-0.002,0.000,0.000,0.000,0.000,1,2,0,1,7,255,1224,300,493,1224
stim,511,511,0,641108.829,0.923,0.064,-0.046,-0.377,1995,29,107,2067,87,1051,75,553,1,0.000,3,0,0.060,0.003,0.020,-0.040,0.040,-0.135,-0.081,0.990,-0.002,0.002,-0.002,0.000,0.000,0.000,0.000,1,2,0,1,7,255,1224,300,498,1224
stim,511,511,0,641113.831,0.923,0.064,-0.046,-0.377,1984,28,109,2077,91,1055,79,552,1,0.000,3,0,0.115,0.002,-0.040,-0.040,0.100,-0.136,-0.081,0.990,0.000,0.002,-0.002,0.000,0.000,0.000,0.000,1,2,0,1,7,255,1224,300,503,1224
stim,511,511,0,641118.829,0.923,0.064,-0.046,-0.377,1993,31,107,2073,88,1045,74,549,1,0.000,3,0,0.115,0.002,-0.040,-0.100,0.040,-0.136,-0.080,0.991,0.000,0.002,-0.002,0.000,0.000,0.000,0.000,1,2,0,1,7,255,1224,300,508,1224
stim,511,511,0,641123.829,0.923,0.064,-0.046,-0.377,1993,33,103,2066,90,1042,81,553,1,0.000,3,0,0.110,0.004,0.020,-0.100,0.040,-0.135,-0.080,0.990,0.000,0.004,-0.002,0.000,0.000,0.000,0.000,1,2,0,1,7,255,1224,300,513,1224
stim,527,527,0,641128.829,0.923,0.064,-0.046,-0.377,1995,33,107,2071,96,1054,75,551,1,0.000,3,0,0.147,0.004,-0.040,-0.100,0.100,-0.137,-0.080,0.990,-0.002,0.004,-0.002,0.000,0.000,0.000,0.000,1,2,0,1,7,255,1224,300,518,1224
stim,527,527,0,641133.829,0.923,0.064,-0.046,-0.377,1984,30,107,2069,97,1053,78,556,1,0.000,3,0,0.115,0.012,-0.040,-0.100,0.040,-0.135,-0.079,0.991,-0.006,0.010,-0.002,0.000,0.000,0.000,0.000,1,2,0,1,7,255,1224,300,523,1224
stim,560,560,0,641138.829,0.923,0.064,-0.046,-0.377,2008,37,101,2055,97,1048,76,549,1,0.000,3,0,0.115,0.016,-0.040,-0.100,0.040,-0.136,-0.079,0.991,-0.010,0.012,0.004,0.000,0.000,0.000,0.000,1,2,0,1,7,255,1224,300,528,1224
stim,560,560,0,641143.829,0.923,0.064,-0.046,-0.377,1983,35,101,2072,95,1049,77,552,1,0.000,3,0,0.110,0.015,0.020,-0.100,0.040,-0.135,-0.080,0.990,-0.006,0.014,0.004,0.000,0.000,0.000,0.000,1,2,0,1,7,255,1224,300,533,1224
stim,561,561,0,641148.829,0.923,0.064,-0.046,-0.377,2003,33,107,2063,103,1059,77,550,1,0.000,3,0,0.069,0.012,-0.040,-0.040,0.040,-0.135,-0.080,0.990,0.000,0.012,0.000,0.000,0.000,0.000,0.000,1,2,0,1,7,255,1224,300,538,1224
stim,561,561,0,641153.829,0.923,0.064,-0.046,-0.377,2007,29,102,2055,97,1043,73,552,1,0.000,3,0,0.060,0.011,-0.040,-0.040,-0.020,-0.134,-0.081,0.991,0.004,0.010,0.000,0.000,0.000,0.000,0.000,1,2,0,1,7,255,1224,300,543,1224
stim,561,561,0,641158.829,0.923,0.064,-0.046,-0.377,2003,33,105,2059,99,1048,77,552,1,0.000,3,0,0.115,0.009,-0.100,-0.040,0.040,-0.136,-0.080,0.991,0.004,0.008,0.004,0.000,0.000,0.000,0.000,1,2,0,1,7,255,1224,300,548,1224
stim,561,561,0,641163.829,0.923,0.064,-0.046,-0.377,1982,33,105,2065,103,1048,76,555,1,0.000,3,0,0.069,0.008,-0.040,-0.040,0.040,-0.135,-0.080,0.991,0.000,0.008,0.006,0.000,0.000,0.000,0.000,1,2,0,1,7,255,1224,300,553,1224
stim,575,575,0,641168.829,0.923,0.064,-0.046,-0.377,2007,35,107,2065,86,1048,73,555,1,0.000,3,0,0.060,0.004,-0.040,-0.040,-0.020,-0.134,-0.082,0.990,0.000,0.004,0.006,0.000,0.000,0.000,0.000,1,2,0,1,7,255,1224,300,558,1224
stim,575,575,0,641173.829,0.923,0.064,-0.046,-0.377,2000,29,103,2065,93,1051,83,561,1,0.000,3,0,0.060,0.008,-0.040,-0.040,-0.020,-0.135,-0.081,0.990,0.006,0.006,0.000,0.000,0.000,0.000,0.000,1,2,0,1,7,255,1224,300,563,1224
stim,591,591,0,641178.829,0.923,0.064,-0.046,-0.377,2005,30,103,2059,95,1045,73,544,1,0.000,3,0,0.060,0.008,-0.040,-0.040,-0.020,-0.135,-0.081,0.990,0.006,0.006,0.000,0.000,0.000,0.000,0.000,1,2,0,1,7,255,1224,300,568,1224
stim,591,591,0,641183.829,0.923,0.064,-0.046,-0.377,2004,29,109,2072,92,1048,73,551,1,0.000,3,0,0.049,0.010,-0.040,0.020,-0.020,-0.134,-0.081,0.991,0.006,0.008,0.000,0.000,0.000,0.000,0.000,1,2,0,1,7,255,1224,300,573,1224
stim,591,591,0,641188.830,0.923,0.064,-0.046,-0.377,1984,27,104,2067,93,1044,75,549,1,0.000,3,0,0.049,0.013,-0.040,0.020,-0.020,-0.135,-0.079,0.990,0.006,0.012,0.000,0.000,0.000,0.000,0.000,1,2,0,1,7,255,1224,300,578,1224
stim,591,591,0,641193.829,0.923,0.064,-0.046,-0.377,1992,37,105,2048,86,1043,74,554,1,0.000,3,0,0.049,0.012,-0.040,0.020,-0.020,-0.135,-0.080,0.990,0.002,0.012,0.000,0.000,0.000,0.000,0.000,1,2,0,1,7,255,1224,300,583,1224
stim,591,591,0,641198.829,0.923,0.064,-0.046,-0.377,2003,27,104,2063,97,1047,76,553,1,0.000,3,0,0.110,0.014,-0.100,0.020,0.040,-0.135,-0.080,0.990,-0.002,0.014,0.000,0.000,0.000,0.000,0.000,1,2,0,1,7,255,1224,300,588,1224
stim,591,591,0,641203.829,0.923,0.064,-0.046,-0.377,2005,37,107,2057,93,1048,75,553,1,0.000,3,0,0.130,0.010,-0.100,0.020,-0.080,-0.136,-0.080,0.991,-0.002,0.010,0.000,0.000,0.000,0.000,0.000,1,2,0,1,7,255,1224,300,593,1224
stim,607,607,0,641208.829,0.923,0.064,-0.046,-0.377,1992,33,108,2065,87,1052,77,553,1,0.000,3,0,0.130,0.015,-0.100,0.020,-0.080,-0.135,-0.080,0.992,-0.004,0.014,0.010,0.000,0.000,0.000,0.000,1,2,0,1,7,255,1224,300,598,1224
stim,607,607,0,641213.829,0.923,0.064,-0.046,-0.377,1979,27,109,2067,91,1043,77,551,1,0.000,3,0,0.104,0.011,-0.100,0.020,-0.020,-0.136,-0.080,0.990,-0.008,0.008,0.010,0.000,0.000,0.000,0.000,1,2,0,1,7,255,1224,300,603,1224
stim,623,623,0,641218.829,0.923,0.064,-0.046,-0.377,2007,33,107,2045,91,1049,76,555,1,0.000,3,0,0.162,0.011,-0.160,0.020,-0.020,-0.135,-0.080,0.990,-0.004,0.010,0.000,0.000,0.000,0.000,0.000,1,2,0,1,7,255,1224,300,608,1224
stim,623,623,0,641223.829,0.923,0.064,-0.046,-0.377,1983,31,106,2057,91,1051,81,553,1,0.000,3,0,0.162,0.010,-0.160,0.020,-0.020,-0.134,-0.081,0.991,0.002,0.010,0.000,0.000,0.000,0.000,0.000,1,2,0,1,7,255,1224,300,613,1224
stim,623,623,0,641228.829,0.923,0.064,-0.046,-0.377,2001,29,103,2063,95,1048,82,552,1,0.000,3,0,0.254,0.010,-0.240,0.080,-0.020,-0.135,-0.080,0.991,0.002,0.010,0.004,0.000,0.000,0.000,0.000,1,2,0,1,7,255,1224,300,618,1224
stim,623,623,0,641233.829,0.923,0.064,-0.046,-0.377,1995,29,110,2065,97,1048,79,551,1,0.000,3,0,0.254,0.008,-0.240,0.080,-0.020,-0.135,-0.081,0.990,0.000,0.008,0.004,0.000,0.000,0.000,0.000,1,2,0,1,7,255,1224,300,623,1224
stim,671,671,0,641238.829,0.923,0.064,-0.046,-0.377,1991,29,107,2072,91,1046,77,551,1,0.000,3,0,0.162,0.004,-0.160,0.020,-0.020,-0.136,-0.081,0.990,0.000,0.004,0.002,0.000,0.000,0.000,0.000,1,2,0,1,7,255,1224,300,628,1224
stim,671,671,0,641243.829,0.923,0.064,-0.046,-0.377,1992,29,105,2067,91,1043,77,553,1,0.000,3,0,0.180,0.000,-0.160,0.080,-0.020,-0.136,-0.080,0.989,0.000,0.000,0.000,0.000,0.000,0.000,0.000,1,2,0,1,7,255,1224,300,633,1224
stim,671,671,0,641248.829,0.923,0.064,-0.046,-0.377,1983,29,107,2047,95,1051,83,555,1,0.000,3,0,0.104,0.002,-0.100,0.020,-0.020,-0.136,-0.081,0.990,0.000,-0.002,-0.004,0.000,0.000,0.000,0.000,1,2,0,1,7,255,1224,300,638,1224
stim,672,672,0,641253.829,0.923,0.064,-0.046,-0.377,2003,33,103,2059,91,1043,73,557,1,0.000,3,0,0.162,0.006,-0.160,0.020,-0.020,-0.137,-0.081,0.991,-0.006,-0.002,-0.004,0.000,0.000,0.000,0.000,1,2,0,1,7,255,1224,300,643,1224
stim,672,672,0,641258.829,0.923,0.064,-0.046,-0.377,1991,27,106,2059,90,1061,75,559,1,0.000,3,0,0.162,0.004,-0.160,0.020,-0.020,-0.136,-0.081,0.990,-0.004,-0.002,0.000,0.000,0.000,0.000,0.000,1,2,0,1,7,255,1224,300,648,1224
stim,672,672,0,641263.829,0.923,0.064,-0.046,-0.377,1984,31,104,2047,93,1048,78,555,1,0.000,3,0,0.151,0.004,-0.100,0.080,-0.080,-0.135,-0.080,0.990,-0.004,0.002,0.000,0.000,0.000,0.000,0.000,1,2,0,1,7,255,1224,300,653,1224
stim,692,692,0,641268.829,0.923,0.064,-0.046,-0.377,1992,33,102,2065,91,1049,82,552,1,0.000,3,0,0.130,0.006,-0.100,0.080,-0.020,-0.135,-0.081,0.991,0.000,0.006,0.000,0.000,0.000,0.000,0.000,1,2,0,1,7,255,1224,300,658,1224
stim,692,692,0,641273.829,0.923,0.064,-0.046,-0.377,1993,33,107,2073,89,1053,83,555,1,0.000,3,0,0.120,0.008,-0.040,0.080,-0.080,-0.135,-0.081,0.992,0.000,0.008,0.010,0.000,0.000,0.000,0.000,1,2,0,1,7,255,1224,300,663,1224
stim,692,692,0,641278.829,0.923,0.064,-0.046,-0.377,2009,35,103,2048,95,1053,78,555,1,0.000,3,0,0.092,0.006,-0.040,0.020,-0.080,-0.136,-0.081,0.989,0.000,0.006,0.010,0.000,0.000,0.000,0.000,1,2,0,1,7,255,1224,300,668,1224
stim,692,692,0,641283.829,0.923,0.064,-0.046,-0.377,1992,27,101,2072,91,1043,75,549,1,0.000,3,0,0.166,0.009,-0.040,0.140,-0.080,-0.135,-0.080,0.990,-0.004,0.008,0.000,0.000,0.000,0.000,0.000,1,2,0,1,7,255,1224,300,673,1224
stim,692,692,0,641288.830,0.923,0.064,-0.046,-0.377,2007,33,109,2067,92,1046,75,556,1,0.000,3,0,0.092,0.007,-0.040,0.080,-0.020,-0.136,-0.080,0.990,-0.004,0.006,0.000,0.000,0.000,0.000,0.000,1,2,0,1,7,255,1224,300,678,1224
stim,692,692,0,641293.829,0.923,0.064,-0.046,-0.377,1993,30,102,2067,91,1048,75,551,1,0.000,3,0,0.115,0.007,0.020,0.080,-0.080,-0.135,-0.081,0.990,-0.004,0.006,0.000,0.000,0.000,0.000,0.000,1,2,0,1,7,255,1224,300,683,1224
stim,692,692,0,641298.829,0.923,0.064,-0.046,-0.377,1997,27,104,2073,89,1045,73,551,1,0.000,3,0,0.151,0.007,-0.100,0.080,-0.080,-0.135,-0.080,0.991,-0.004,0.006,0.000,0.000,0.000,0.000,0.000,1,2,0,1,7,255,1224,300,688,1224
stim,692,692,0,641303.829,0.923,0.064,-0.046,-0.377,1991,35,105,2047,96,1044,75,559,1,0.000,3,0,0.092,0.011,-0.040,0.080,-0.020,-0.136,-0.079,0.991,-0.004,0.010,0.008,0.000,0.000,0.000,0.000,1,2,0,1,7,255,1224,300,693,1224
stim,705,705,0,641308.829,0.923,0.064,-0.046,-0.377,2003,35,103,2057,92,1052,77,555,1,0.000,3,0,0.092,0.011,-0.040,0.080,-0.020,-0.135,-0.080,0.991,-0.004,0.010,0.008,0.000,0.000,0.000,0.000,1,2,0,1,7,255,1224,300,698,1224
stim,705,705,0,641313.829,0.923,0.064,-0.046,-0.377,1992,28,106,2047,98,1048,73,554,1,0.000,3,0,0.120,0.013,-0.040,0.080,-0.080,-0.135,-0.080,0.990,-0.004,0.012,0.004,0.000,0.000,0.000,0.000,1,2,0,1,7,255,1224,300,703,1224
stim,725,725,0,641318.829,0.923,0.064,-0.046,-0.377,1999,33,107,2075,93,1055,79,554,1,0.000,3,0,0.092,0.009,-0.040,0.080,-0.020,-0.136,-0.081,0.990,-0.004,0.008,-0.002,0.000,0.000,0.000,0.000,1,2,0,1,7,255,1224,300,708,1224
stim,725,725,0,641323.829,0.923,0.064,-0.046,-0.377,1995,36,105,2063,96,1048,81,552,1,0.000,3,0,0.130,0.013,-0.100,0.080,-0.020,-0.135,-0.079,0.990,-0.004,0.012,-0.002,0.000,0.000,0.000,0.000,1,2,0,1,7,255,1224,300,713,1224
stim,725,725,0,641328.829,0.923,0.064,-0.046,-0.377,1991,29,106,2065,95,1045,73,561,1,0.000,3,0,0.085,0.004,0.020,0.080,-0.020,-0.136,-0.081,0.990,-0.004,0.000,-0.002,0.000,0.000,0.000,0.000,1,2,0,1,7,255,1224,300,718,1224
stim,725,725,0,641333.829,0.923,0.064,-0.046,-0.377,2002,31,105,2077,95,1045,75,555,1,0.000,3,0,0.130,0.008,-0.100,0.080,-0.020,-0.135,-0.081,0.991,0.000,0.008,0.002,0.000,0.000,0.000,0.000,1,2,0,1,7,255,1224,300,723,1224
stim,768,768,0,641338.829,0.923,0.064,-0.046,-0.377,2005,37,106,2063,99,1061,85,551,1,0.000,3,0,0.134,0.002,-0.100,0.080,0.040,-0.136,-0.081,0.991,0.000,0.002,0.004,0.000,0.000,0.000,0.000,1,2,0,1,7,255,1224,300,728,1224
stim,768,768,0,641343.829,0.923,0.064,-0.046,-0.377,1991,29,103,2076,95,1048,74,555,1,0.000,3,0,0.098,0.007,-0.040,0.080,0.040,-0.135,-0.080,0.990,-0.004,0.006,0.004,0.000,0.000,0.000,0.000,1,2,0,1,7,255,1224,300,733,1224
stim,768,768,0,641348.829,0.923,0.064,-0.046,-0.377,2012,30,104,2059,99,1047,79,551,1,0.000,3,0,0.049,0.007,-0.040,0.020,-0.020,-0.135,-0.080,0.990,-0.004,0.006,-0.006,0.000,0.000,0.000,0.000,1,2,0,1,7,255,1224,300,738,1224
stim,768,768,0,641353.830,0.923,0.064,-0.046,-0.377,2005,33,105,2063,91,1044,73,551,1,0.000,3,0,0.049,0.011,-0.040,0.020,-0.020,-0.135,-0.080,0.990,-0.004,0.010,-0.006,0.000,0.000,0.000,0.000,1,2,0,1,7,255,1224,300,743,1224
stim,768,768,0,641358.829,0.923,0.064,-0.046,-0.377,2015,31,107,2060,89,1053,75,552,1,0.000,3,0,0.092,0.010,-0.040,0.080,-0.020,-0.136,-0.081,0.990,-0.002,0.010,-0.002,0.000,0.000,0.000,0.000,1,2,0,1,7,255,1224,300,748,1224
stim,768,768,0,641363.829,0.923,0.064,-0.046,-0.377,1997,29,106,2081,89,1049,79,549,1,0.000,3,0,0.049,0.003,-0.040,0.020,-0.020,-0.136,-0.081,0.990,-0.002,-0.002,0.002,0.000,0.000,0.000,0.000,1,2,0,1,7,255,1224,300,753,1224
stim,784,784,0,641368.829,0.923,0.064,-0.046,-0.377,2013,35,106,2065,100,1059,76,555,1,0.000,3,0,0.049,0.004,-0.040,0.020,-0.020,-0.136,-0.081,0.990,-0.004,-0.002,0.002,0.000,0.000,0.000,0.000,1,2,0,1,7,255,1224,300,758,1224
stim,784,784,0,641373.829,0.923,0.064,-0.046,-0.377,2003,31,107,2067,98,1049,77,555,1,0.000,3,0,0.104,0.004,-0.100,0.020,-0.020,-0.135,-0.080,0.991,-0.004,0.000,0.002,0.000,0.000,0.000,0.000,1,2,0,1,7,255,1224,300,763,1224
stim,784,784,0,641378.829,0.923,0.064,-0.046,-0.377,1997,37,107,2059,97,1048,75,555,1,0.000,3,0,0.049,0.009,-0.040,0.020,-0.020,-0.135,-0.080,0.990,-0.004,0.008,0.000,0.000,0.000,0.000,0.000,1,2,0,1,7,255,1224,300,768,1224
stim,784,784,0,641383.829,0.923,0.064,-0.046,-0.377,2002,35,104,2060,93,1051,77,555,1,0.000,3,0,0.060,0.009,-0.040,-0.040,-0.020,-0.135,-0.080,0.990,-0.004,0.008,0.000,0.000,0.000,0.000,0.000,1,2,0,1,7,255,1224,300,773,1224
stim,784,784,0,641388.829,0.923,0.064,-0.046,-0.377,2009,33,107,2072,92,1047,73,553,1,0.000,3,0,0.104,0.011,-0.100,0.020,-0.020,-0.136,-0.080,0.990,-0.008,0.008,0.000,0.000,0.000,0.000,0.000,1,2,0,1,7,255,1224,300,778,1224
stim,784,784,0,641393.829,0.923,0.064,-0.046,-0.377,2006,35,103,2059,87,1041,73,553,1,0.000,3,0,0.049,0.009,-0.040,0.020,-0.020,-0.136,-0.081,0.991,-0.008,0.004,0.000,0.000,0.000,0.000,0.000,1,2,0,1,7,255,1224,300,783,1224
stim,800,800,0,641398.829,0.923,0.064,-0.046,-0.377,1995,31,107,2075,91,1056,75,548,1,0.000,3,0,0.104,0.007,-0.100,0.020,-0.020,-0.135,-0.080,0.990,-0.006,0.004,0.000,0.000,0.000,0.000,0.000,1,2,0,1,7,255,1224,300,788,1224
stim,800,800,0,641403.829,0.923,0.064,-0.046,-0.377,2005,27,107,2071,92,1047,74,552,1,0.000,3,0,0.115,0.010,-0.100,-0.040,0.040,-0.135,-0.079,0.990,-0.006,0.008,0.000,0.000,0.000,0.000,0.000,1,2,0,1,7,255,1224,300,793,1224
stim,815,815,0,641408.829,0.923,0.064,-0.046,-0.377,2004,27,105,2077,91,1045,77,555,1,0.000,3,0,0.190,0.010,-0.160,0.020,0.100,-0.136,-0.081,0.989,-0.006,0.008,-0.002,0.000,0.000,0.000,0.000,1,2,0,1,7,255,1224,300,798,1224
stim,815,815,0,641413.829,0.923,0.064,-0.046,-0.377,2007,35,106,2068,91,1047,77,554,1,0.000,3,0,0.069,0.010,-0.040,-0.040,0.040,-0.135,-0.080,0.990,-0.006,0.008,-0.002,0.000,0.000,0.000,0.000,1,2,0,1,7,255,1224,300,803,1224
stim,815,815,0,641418.829,0.923,0.064,-0.046,-0.377,2004,35,103,2069,85,1044,74,549,1,0.000,3,0,0.069,0.004,-0.040,-0.040,0.040,-0.135,-0.081,0.990,-0.004,0.002,0.000,0.000,0.000,0.000,0.000,1,2,0,1,7,255,1224,300,808,1224
stim,815,815,0,641423.829,0.923,0.064,-0.046,-0.377,1996,28,101,2067,99,1044,77,555,1,0.000,3,0,0.060,0.003,0.020,-0.040,0.040,-0.136,-0.081,0.990,-0.002,0.002,0.000,0.000,0.000,0.000,0.000,1,2,0,1,7,255,1224,300,813,1224
stim,832,832,0,641428.829,0.923,0.064,-0.046,-0.377,2009,33,107,2063,89,1046,75,556,1,0.000,3,0,0.069,0.003,-0.040,-0.040,0.040,-0.136,-0.081,0.990,-0.002,-0.002,0.000,0.000,0.000,0.000,0.000,1,2,0,1,7,255,1224,300,818,1224
stim,832,832,0,641433.829,0.923,0.064,-0.046,-0.377,1996,37,107,2067,97,1053,76,555,1,0.000,3,0,0.069,0.006,-0.040,-0.040,0.040,-0.136,-0.080,0.990,-0.006,-0.002,-0.002,0.000,0.000,0.000,0.000,1,2,0,1,7,255,1224,300,823,1224
stim,864,864,0,641438.829,0.923,0.064,-0.046,-0.377,1997,35,103,2055,87,1043,81,553,1,0.000,3,0,0.069,0.008,-0.040,-0.040,0.040,-0.135,-0.080,0.990,-0.008,0.000,-0.002,0.000,0.000,0.000,0.000,1,2,0,1,7,255,1224,300,828,1224
stim,864,864,0,641443.829,0.923,0.064,-0.046,-0.377,2007,35,109,2058,97,1051,78,558,1,0.000,3,0,0.110,0.017,0.020,-0.100,0.040,-0.135,-0.079,0.991,-0.012,0.012,0.000,0.000,0.000,0.000,0.000,1,2,0,1,7,255,1224,300,833,1224
stim,864,864,0,641448.829,0.923,0.064,-0.046,-0.377,1997,27,107,2067,90,1048,81,551,1,0.000,3,0,0.147,0.014,-0.100,-0.100,0.040,-0.135,-0.080,0.990,-0.008,0.012,0.000,0.000,0.000,0.000,0.000,1,2,0,1,7,255,1224,300,838,1224
stim,864,864,0,641453.830,0.923,0.064,-0.046,-0.377,1993,33,101,2042,85,1045,75,552,1,0.000,3,0,0.110,0.014,0.020,-0.100,0.040,-0.134,-0.081,0.990,-0.002,0.014,0.000,0.000,0.000,0.000,0.000,1,2,0,1,7,255,1224,300,843,1224
stim,864,864,0,641458.829,0.923,0.064,-0.046,-0.377,1995,35,103,2072,93,1053,77,555,1,0.000,3,0,0.104,0.010,0.020,-0.100,-0.020,-0.135,-0.080,0.990,-0.002,0.010,-0.002,0.000,0.000,0.000,0.000,1,2,0,1,7,255,1224,300,848,1224
stim,864,864,0,641463.829,0.923,0.064,-0.046,-0.377,1995,35,105,2063,97,1051,80,557,1,0.000,3,0,0.115,0.010,-0.100,-0.040,0.040,-0.135,-0.081,0.991,-0.002,0.010,-0.002,0.000,0.000,0.000,0.000,1,2,0,1,7,255,1224,300,853,1224
stim,879,879,0,641468.829,0.923,0.064,-0.046,-0.377,2003,31,107,2069,94,1047,73,551,1,0.000,3,0,0.060,0.010,-0.040,-0.040,-0.020,-0.135,-0.080,0.989,-0.002,0.010,-0.006,0.000,0.000,0.000,0.000,1,2,0,1,7,255,1224,300,858,1224
stim,879,879,0,641473.829,0.923,0.064,-0.046,-0.377,2012,39,100,2059,87,1051,77,563,1,0.000,3,0,0.069,0.008,-0.040,-0.040,0.040,-0.135,-0.080,0.990,-0.006,0.006,-0.004,0.000,0.000,0.000,0.000,1,2,0,1,7,255,1224,300,863,1224
stim,879,879,0,641478.829,0.923,0.064,-0.046,-0.377,2017,31,103,2057,88,1044,75,551,1,0.000,3,0,0.069,0.012,-0.040,-0.040,0.040,-0.134,-0.081,0.990,-0.006,0.010,-0.006,0.000,0.000,0.000,0.000,1,2,0,1,7,255,1224,300,868,1224
stim,879,879,0,641483.829,0.923,0.064,-0.046,-0.377,1997,27,104,2063,91,1047,77,557,1,0.000,3,0,0.115,0.008,-0.040,-0.040,0.100,-0.136,-0.080,0.991,-0.006,0.006,-0.004,0.000,0.000,0.000,0.000,1,2,0,1,7,255,1224,300,873,1224
stim,895,895,0,641488.829,0.923,0.064,-0.046,-0.377,2005,37,111,2065,89,1059,77,553,1,0.000,3,0,0.147,0.010,-0.100,-0.040,0.100,-0.135,-0.080,0.990,-0.002,0.010,0.000,0.000,0.000,0.000,0.000,1,2,0,1,7,255,1224,300,878,1224
stim,895,895,0,641493.829,0.923,0.064,-0.046,-0.377,1993,28,102,2059,88,1059,75,553,1,0.000,3,0,0.147,0.012,-0.100,-0.040,0.100,-0.134,-0.080,0.990,-0.002,0.012,0.000,0.000,0.000,0.000,0.000,1,2,0,1,7,255,1224,300,883,1224
stim,895,895,0,641498.829,0.923,0.064,-0.046,-0.377,1993,27,109,2058,93,1056,73,555,1,0.000,3,0,0.147,0.012,-0.040,-0.100,0.100,-0.135,-0.081,0.991,0.000,0.012,0.000,0.000,0.000,0.000,0.000,1,2,0,1,7,255,1224,300,888,1224
stim,895,895,0,641503.829,0.923,0.065,-0.046,-0.377,2007,31,103,2063,88,1049,83,557,1,0.000,3,0,0.115,0.010,-0.040,-0.040,0.100,-0.135,-0.081,0.991,0.000,0.010,0.004,0.000,0.000,0.000,0.000,1,2,0,1,7,255,1224,300,893,1224
stim,912,912,0,641508.830,0.923,0.065,-0.046,-0.377,1984,29,103,2065,89,1048,75,557,1,0.000,3,0,0.143,0.006,0.020,-0.100,0.100,-0.135,-0.081,0.990,0.000,0.006,0.004,0.000,0.000,0.000,0.000,1,2,0,1,7,255,1224,300,898,1224
stim,912,912,0,641513.829,0.923,0.065,-0.046,-0.377,2011,35,108,2070,93,1042,81,559,1,0.000,3,0,0.115,0.004,-0.040,-0.040,0.100,-0.136,-0.082,0.990,0.000,0.004,0.002,0.000,0.000,0.000,0.000,1,2,0,1,7,255,1224,300,903,1224
stim,928,928,0,641518.829,0.923,0.064,-0.046,-0.376,2001,33,103,2057,99,1058,79,553,1,0.000,3,0,0.115,0.006,-0.040,-0.040,0.100,-0.136,-0.080,0.989,-0.004,0.004,0.000,0.000,0.000,0.000,0.000,1,2,0,1,7,255,1224,300,908,1224
stim,928,928,0,641523.829,0.923,0.064,-0.046,-0.376,2001,33,111,2073,98,1049,81,552,1,0.000,3,0,0.110,0.008,0.020,-0.040,0.100,-0.134,-0.079,0.990,-0.006,0.006,-0.006,0.000,0.000,0.000,0.000,1,2,0,1,7,255,1224,300,913,1224
stim,928,928,0,641528.829,0.923,0.064,-0.046,-0.376,2003,33,108,2059,90,1047,80,556,1,0.000,3,0,0.110,0.014,0.020,-0.040,0.100,-0.136,-0.080,0.991,-0.012,0.008,-0.006,0.000,0.000,0.000,0.000,1,2,0,1,7,255,1224,300,918,1224
stim,928,928,0,641533.829,0.923,0.064,-0.046,-0.376,1983,28,103,2043,87,1045,77,549,1,0.000,3,0,0.115,0.010,-0.040,-0.040,0.100,-0.134,-0.081,0.989,-0.006,0.008,-0.006,0.000,0.000,0.000,0.000,1,2,0,1,7,255,1224,300,923,1224
stim,928,928,0,641538.829,0.923,0.064,-0.046,-0.376,1994,27,103,2063,92,1041,83,555,1,0.000,3,0,0.060,0.009,0.020,-0.040,0.040,-0.134,-0.081,0.990,0.004,0.008,0.000,0.000,0.000,0.000,0.000,1,2,0,1,7,255,1224,300,928,1224
stim,959,959,0,641543.829,0.923,0.064,-0.046,-0.376,1991,29,107,2057,96,1047,75,554,1,0.000,3,0,0.098,0.011,0.080,-0.040,0.040,-0.135,-0.080,0.991,0.004,0.010,0.000,0.000,0.000,0.000,0.000,1,2,0,1,7,255,1224,300,933,1224
stim,959,959,0,641548.829,0.923,0.064,-0.046,-0.376,1991,35,109,2066,87,1043,75,553,1,0.000,3,0,0.069,0.010,-0.040,-0.040,0.040,-0.136,-0.080,0.990,-0.002,0.010,0.000,0.000,0.000,0.000,0.000,1,2,0,1,7,255,1224,300,938,1224
stim,959,959,0,641553.830,0.923,0.064,-0.046,-0.376,1993,27,103,2053,91,1043,72,551,1,0.000,3,0,0.069,0.013,-0.040,-0.040,0.040,-0.135,-0.080,0.989,-0.010,0.008,0.000,0.000,0.000,0.000,0.000,1,2,0,1,7,255,1224,300,943,1224
stim,959,959,0,641558.829,0.923,0.064,-0.046,-0.376,2007,39,109,2057,87,1045,74,552,1,0.000,3,0,0.115,0.013,-0.040,-0.040,0.100,-0.135,-0.080,0.990,-0.010,0.008,-0.006,0.000,0.000,0.000,0.000,1,2,0,1,7,255,1224,300,948,1224
stim,959,959,0,641563.829,0.923,0.064,-0.046,-0.376,1988,30,104,2055,89,1047,73,553,1,0.000,3,0,0.069,0.014,-0.040,-0.040,0.040,-0.135,-0.080,0.990,-0.010,0.010,-0.006,0.000,0.000,0.000,0.000,1,2,0,1,7,255,1224,300,953,1224
stim,959,959,0,641568.829,0.923,0.064,-0.046,-0.376,2007,29,105,2069,88,1049,84,555,1,0.000,3,0,0.060,0.012,-0.040,-0.040,-0.020,-0.135,-0.081,0.990,-0.006,0.010,-0.006,0.000,0.000,0.000,0.000,1,2,0,1,7,255,1224,300,958,1224
stim,975,975,0,641573.829,0.923,0.064,-0.046,-0.376,1996,33,103,2073,91,1049,77,553,1,0.000,3,0,0.060,0.011,-0.040,0.020,0.040,-0.136,-0.080,0.990,-0.010,0.004,0.000,0.000,0.000,0.000,0.000,1,2,0,1,7,255,1224,300,963,1224
stim,976,976,0,641578.829,0.923,0.064,-0.046,-0.376,2003,33,109,2067,91,1055,83,554,1,0.000,3,0,0.060,0.007,-0.040,0.020,0.040,-0.135,-0.080,0.990,-0.006,0.004,0.000,0.000,0.000,0.000,0.000,1,2,0,1,7,255,1224,300,968,1224
stim,976,976,0,641583.829,0.923,0.064,-0.046,-0.376,1989,39,103,2053,75,1045,76,553,1,0.000,3,0,0.049,0.013,-0.040,0.020,-0.020,-0.136,-0.079,0.990,-0.010,0.008,0.000,0.000,0.000,0.000,0.000,1,2,0,1,7,255,1224,300,973,1224
stim,976,976,0,641588.829,0.923,0.064,-0.046,-0.376,1996,40,107,2055,92,1047,75,561,1,0.000,3,0,0.035,0.013,0.020,0.020,-0.020,-0.134,-0.080,0.991,-0.006,0.012,0.000,0.000,0.000,0.000,0.000,1,2,0,1,7,255,1224,300,978,1224
stim,992,992,0,641593.829,0.923,0.064,-0.046,-0.376,1997,29,104,2063,91,1053,79,565,1,0.000,3,0,0.115,0.018,-0.100,-0.040,0.040,-0.136,-0.079,0.992,-0.016,0.008,0.004,0.000,0.000,0.000,0.000,1,2,0,1,7,255,1224,300,983,1224
stim,992,992,0,641598.829,0.923,0.064,-0.046,-0.376,2003,26,107,2057,91,1044,77,557,1,0.000,3,0,0.049,0.016,-0.040,0.020,-0.020,-0.135,-0.079,0.989,-0.012,0.010,0.004,0.000,0.000,0.000,0.000,1,2,0,1,7,255,1224,300,988,1224
stim,1007,1007,0,641603.829,0.923,0.064,-0.046,-0.376,1995,35,105,2075,88,1050,81,564,1,0.000,3,0,0.104,0.016,-0.100,0.020,-0.020,-0.135,-0.079,0.990,-0.012,0.010,0.000,0.000,0.000,0.000,0.000,1,2,0,1,7,255,1224,300,993,1224
stim,1007,1007,0,641608.829,0.923,0.064,-0.046,-0.376,2003,37,109,2071,94,1051,83,552,1,0.000,3,0,0.110,0.014,-0.100,0.020,0.040,-0.135,-0.079,0.990,-0.010,0.010,-0.006,0.000,0.000,0.000,0.000,1,2,0,1,7,255,1224,300,998,1224
stim,1007,1007,0,641613.829,0.923,0.064,-0.046,-0.376,1999,33,107,2071,93,1047,81,555,1,0.000,3,0,0.151,0.014,-0.100,0.080,-0.080,-0.135,-0.081,0.989,-0.010,0.010,-0.006,0.000,0.000,0.000,0.000,1,2,0,1,7,255,1224,300,1003,1224
stim,1007,1007,0,641618.829,0.923,0.064,-0.046,-0.376,1991,34,101,2067,89,1045,81,560,1,0.000,3,0,0.104,0.011,-0.100,0.020,-0.020,-0.136,-0.080,0.990,-0.010,-0.004,-0.006,0.000,0.000,0.000,0.000,1,2,0,1,7,255,1224,300,1008,1224
stim,1024,1024,0,641623.829,0.923,0.064,-0.046,-0.376,1993,33,107,2071,93,1059,78,563,1,0.000,3,0,0.104,0.011,-0.100,0.020,-0.020,-0.136,-0.080,0.989,-0.010,-0.004,-0.008,0.000,0.000,0.000,0.000,1,2,0,1,7,255,1224,300,1013,1224
stim,1024,1024,0,641628.829,0.923,0.064,-0.046,-0.376,1992,29,105,2047,95,1051,75,555,1,0.000,3,0,0.162,0.010,-0.160,0.020,-0.020,-0.135,-0.081,0.990,-0.010,0.000,-0.004,0.000,0.000,0.000,0.000,1,2,0,1,7,255,1224,300,1018,1224
stim,1039,1039,0,641633.829,0.923,0.064,-0.046,-0.376,2001,37,103,2071,91,1047,79,551,1,0.000,3,0,0.162,0.010,-0.160,0.020,-0.020,-0.136,-0.080,0.992,-0.010,0.002,-0.004,0.000,0.000,0.000,0.000,1,2,0,1,7,255,1224,300,1023,1224
stim,1039,1039,0,641638.829,0.923,0.064,-0.046,-0.376,1993,33,107,2072,90,1050,76,561,1,0.000,3,0,0.104,0.010,-0.100,0.020,-0.020,-0.136,-0.080,0.991,-0.010,0.000,0.006,0.000,0.000,0.000,0.000,1,2,0,1,7,255,1224,300,1028,1224
stim,1057,1057,0,641643.829,0.923,0.064,-0.046,-0.376,2005,37,103,2058,83,1049,80,563,1,0.000,3,0,0.235,0.010,-0.220,0.080,-0.020,-0.137,-0.081,0.990,-0.010,-0.002,0.006,0.000,0.000,0.000,0.000,1,2,0,1,7,255,1224,300,1033,1224
stim,1057,1057,0,641648.829,0.923,0.064,-0.046,-0.376,1997,31,101,2063,92,1045,78,563,1,0.000,3,0,0.235,0.010,-0.220,0.020,-0.080,-0.135,-0.080,0.990,-0.010,-0.002,0.002,0.000,0.000,0.000,0.000,1,2,0,1,7,255,1224,300,1038,1224
stim,1057,1057,0,641653.830,0.923,0.064,-0.046,-0.376,1984,29,107,2072,95,1050,82,557,1,0.000,3,0,0.247,0.010,-0.220,0.080,-0.080,-0.136,-0.081,0.990,-0.008,-0.006,0.002,0.000,0.000,0.000,0.000,1,2,0,1,7,255,1224,300,1043,1224
stim,1057,1057,0,641658.829,0.923,0.064,-0.046,-0.376,1995,30,106,2067,86,1058,77,553,1,0.000,3,0,0.180,0.008,-0.160,0.020,-0.080,-0.136,-0.080,0.990,-0.008,0.002,0.000,0.000,0.000,0.000,0.000,1,2,0,1,7,255,1224,300,1048,1224
stim,1057,1057,0,641663.829,0.923,0.064,-0.046,-0.376,2003,36,104,2063,88,1048,83,552,1,0.000,3,0,0.254,0.008,-0.240,0.020,-0.080,-0.135,-0.081,0.990,-0.008,-0.002,0.000,0.000,0.000,0.000,0.000,1,2,0,1,7,255,1224,300,1053,1224
stim,1057,1057,0,641668.829,0.923,0.064,-0.046,-0.376,1993,36,107,2063,88,1049,81,557,1,0.000,3,0,0.227,0.004,-0.160,0.080,-0.140,-0.135,-0.080,0.991,-0.004,0.002,0.000,0.000,0.000,0.000,0.000,1,2,0,1,7,255,1224,300,1058,1224
stim,1071,1071,0,641673.829,0.923,0.064,-0.046,-0.376,1992,29,104,2071,88,1043,83,558,1,0.000,3,0,0.227,0.002,-0.160,0.080,-0.140,-0.136,-0.082,0.991,0.000,-0.002,0.004,0.000,0.000,0.000,0.000,1,2,0,1,7,255,1224,300,1063,1224
stim,1071,1071,0,641678.829,0.923,0.064,-0.046,-0.376,1994,29,106,2073,91,1042,81,557,1,0.000,3,0,0.196,0.006,-0.160,0.080,-0.080,-0.135,-0.080,0.990,0.000,0.006,0.004,0.000,0.000,0.000,0.000,1,2,0,1,7,255,1224,300,1068,1224
stim,1091,1091,0,641683.829,0.923,0.064,-0.046,-0.376,1991,30,106,2067,92,1046,83,557,1,0.000,3,0,0.214,0.000,-0.160,0.020,-0.140,-0.135,-0.081,0.990,0.000,0.000,0.000,0.000,0.000,0.000,0.000,1,2,0,1,7,255,1224,300,1073,1224
stim,1091,1091,0,641688.829,0.923,0.064,-0.046,-0.376,1993,27,108,2055,95,1051,76,557,1,0.000,3,0,0.130,0.008,-0.100,0.020,-0.080,-0.135,-0.080,0.990,-0.002,0.008,-0.004,0.000,0.000,0.000,0.000,1,2,0,1,7,255,1224,300,1078,1224
stim,1091,1091,0,641693.829,0.923,0.064,-0.046,-0.376,2008,33,103,2072,97,1049,75,552,1,0.000,3,0,0.214,0.004,-0.160,0.020,-0.140,-0.136,-0.080,0.990,-0.002,0.004,-0.004,0.000,0.000,0.000,0.000,1,2,0,1,7,255,1224,300,1083,1224
stim,1091,1091,0,641698.829,0.923,0.064,-0.046,-0.376,2011,33,107,2055,96,1048,75,556,1,0.000,3,0,0.130,0.004,-0.100,0.020,-0.080,-0.135,-0.081,0.989,-0.002,0.004,-0.006,0.000,0.000,0.000,0.000,1,2,0,1,7,255,1224,300,1088,1224
stim,1105,1105,0,641703.829,0.923,0.064,-0.046,-0.376,2007,33,105,2063,92,1049,83,552,1,0.000,3,0,0.180,0.013,-0.160,0.080,-0.020,-0.135,-0.079,0.990,-0.012,0.004,-0.006,0.000,0.000,0.000,0.000,1,2,0,1,7,255,1224,300,1093,1224
stim,1105,1105,0,641708.830,0.923,0.064,-0.046,-0.376,2003,28,105,2073,93,1043,83,555,1,0.000,3,0,0.104,0.006,-0.100,0.020,-0.020,-0.135,-0.080,0.990,-0.004,0.004,-0.006,0.000,0.000,0.000,0.000,1,2,0,1,7,255,1224,300,1098,1224
stim,1124,1124,0,641713.829,0.923,0.064,-0.046,-0.376,1999,33,107,2063,93,1053,75,552,1,0.000,3,0,0.183,0.007,-0.160,-0.040,-0.080,-0.135,-0.081,0.991,-0.004,0.006,-0.004,0.000,0.000,0.000,0.000,1,2,0,1,7,255,1224,300,1103,1224
stim,1124,1124,0,641718.829,0.923,0.064,-0.046,-0.376,2004,35,105,2072,95,1053,84,551,1,0.000,3,0,0.104,0.006,-0.100,0.020,-0.020,-0.134,-0.081,0.991,0.002,0.006,0.004,0.000,0.000,0.000,0.000,1,2,0,1,7,255,1224,300,1108,1224
stim,1124,1124,0,641723.829,0.923,0.064,-0.046,-0.376,1991,33,105,2055,99,1051,83,563,1,0.000,3,0,0.049,0.006,-0.040,0.020,-0.020,-0.136,-0.081,0.989,0.002,0.006,0.004,0.000,0.000,0.000,0.000,1,2,0,1,7,255,1224,300,1113,1224
stim,1124,1124,0,641728.829,0.923,0.064,-0.046,-0.376,2017,37,107,2067,91,1050,77,560,1,0.000,3,0,0.104,0.004,-0.100,0.020,-0.020,-0.136,-0.080,0.989,-0.002,0.004,-0.008,0.000,0.000,0.000,0.000,1,2,0,1,7,255,1224,300,1118,1224
stim,1124,1124,0,641733.829,0.923,0.064,-0.046,-0.376,2003,31,109,2073,93,1043,77,552,1,0.000,3,0,0.104,0.010,-0.100,0.020,-0.020,-0.136,-0.081,0.990,-0.006,-0.008,-0.008,0.000,0.000,0.000,0.000,1,2,0,1,7,255,1224,300,1123,1224
stim,1124,1124,0,641738.829,0.923,0.064,-0.046,-0.376,1994,30,104,2067,91,1043,73,553,1,0.000,3,0,0.110,0.007,-0.100,-0.040,-0.020,-0.135,-0.080,0.990,-0.006,0.004,-0.006,0.000,0.000,0.000,0.000,1,2,0,1,7,255,1224,300,1128,1224
stim,1168,1168,0,641743.829,0.923,0.064,-0.046,-0.376,2013,37,108,2071,90,1047,82,553,1,0.000,3,0,0.110,0.006,-0.100,0.020,0.040,-0.134,-0.081,0.989,-0.002,0.006,-0.006,0.000,0.000,0.000,0.000,1,2,0,1,7,255,1224,300,1133,1224
stim,1168,1168,0,641748.829,0.923,0.064,-0.046,-0.376,2003,29,103,2067,89,1054,81,557,1,0.000,3,0,0.060,0.006,-0.040,0.020,0.040,-0.135,-0.081,0.989,-0.002,0.006,-0.008,0.000,0.000,0.000,0.000,1,2,0,1,7,255,1224,300,1138,1224
stim,1168,1168,0,641753.830,0.923,0.064,-0.046,-0.376,1999,34,109,2057,95,1045,81,555,1,0.000,3,0,0.060,0.006,-0.040,0.020,0.040,-0.134,-0.080,0.990,0.002,0.006,-0.008,0.000,0.000,0.000,0.000,1,2,0,1,7,255,1224,300,1143,1224
stim,1168,1168,0,641758.829,0.923,0.065,-0.046,-0.376,1993,34,107,2059,92,1050,76,555,1,0.000,3,0,0.060,0.003,-0.040,0.020,0.040,-0.136,-0.080,0.990,-0.002,0.002,-0.004,0.000,0.000,0.000,0.000,1,2,0,1,7,255,1224,300,1148,1224
stim,1168,1168,0,641763.829,0.923,0.065,-0.046,-0.376,1999,36,109,2063,91,1053,81,552,1,0.000,3,0,0.110,0.010,-0.040,0.020,0.100,-0.137,-0.081,0.990,-0.010,0.002,0.000,0.000,0.000,0.000,0.000,1,2,0,1,7,255,1224,300,1153,1224
stim,1168,1168,0,641768.829,0.923,0.065,-0.046,-0.376,2004,35,109,2063,91,1043,73,557,1,0.000,3,0,0.110,0.010,-0.040,0.020,0.100,-0.135,-0.080,0.990,-0.010,0.002,-0.004,0.000,0.000,0.000,0.000,1,2,0,1,7,255,1224,300,1158,1224
stim,1183,1183,0,641773.829,0.923,0.064,-0.046,-0.376,2003,29,104,2072,89,1050,74,557,1,0.000,3,0,0.110,0.007,-0.040,0.020,0.100,-0.134,-0.080,0.990,-0.006,0.004,-0.002,0.000,0.000,0.000,0.000,1,2,0,1,7,255,1224,300,1163,1224
stim,1183,1183,0,641778.829,0.923,0.064,-0.046,-0.376,2002,31,105,2057,90,1043,75,567,1,0.000,3,0,0.134,0.007,0.080,-0.040,0.100,-0.135,-0.080,0.989,-0.006,0.004,-0.004,0.000,0.000,0.000,0.000,1,2,0,1,7,255,1224,300,1168,1224
stim,1183,1183,0,641783.829,0.923,0.065,-0.046,-0.376,1996,29,105,2076,92,1050,74,563,1,0.000,3,0,0.183,0.008,0.080,-0.040,0.160,-0.135,-0.080,0.990,-0.002,0.008,-0.004,0.000,0.000,0.000,0.000,1,2,0,1,7,255,1224,300,1173,1224
stim,1183,1183,0,641788.829,0.923,0.065,-0.046,-0.376,2005,28,107,2067,91,1047,77,563,1,0.000,3,0,0.134,0.008,0.080,-0.040,0.100,-0.135,-0.080,0.990,-0.006,0.006,-0.004,0.000,0.000,0.000,0.000,1,2,0,1,7,255,1224,300,1178,1224
stim,1199,1199,0,641793.829,0.923,0.064,-0.046,-0.376,1997,35,108,2055,87,1048,75,559,1,0.000,3,0,0.166,0.010,0.020,-0.040,0.160,-0.135,-0.080,0.990,-0.006,0.008,-0.004,0.000,0.000,0.000,0.000,1,2,0,1,7,255,1224,300,1183,1224
stim,1199,1199,0,641798.829,0.923,0.064,-0.046,-0.376,1996,29,107,2074,89,1045,77,557,1,0.000,3,0,0.216,0.010,0.140,-0.040,0.160,-0.136,-0.080,0.990,-0.008,0.006,-0.004,0.000,0.000,0.000,0.000,1,2,0,1,7,255,1224,300,1188,1224
stim,1199,1199,0,641803.829,0.923,0.064,-0.046,-0.376,1993,39,103,2059,92,1046,78,563,1,0.000,3,0,0.235,0.009,0.140,-0.100,0.160,-0.135,-0.080,0.990,-0.008,0.004,-0.004,0.000,0.000,0.000,0.000,1,2,0,1,7,255,1224,300,1193,1224
stim,1199,1199,0,641808.829,0.923,0.065,-0.046,-0.376,2005,29,103,2065,97,1044,77,555,1,0.000,3,0,0.237,0.007,0.080,-0.040,0.220,-0.134,-0.081,0.990,-0.006,0.004,-0.004,0.000,0.000,0.000,0.000,1,2,0,1,7,255,1224,300,1198,1224
stim,1215,1215,0,641813.829,0.923,0.065,-0.046,-0.376,1991,33,107,2059,99,1061,79,557,1,0.000,3,0,0.237,0.004,0.080,-0.040,0.220,-0.135,-0.081,0.990,0.000,0.004,-0.002,0.000,0.000,0.000,0.000,1,2,0,1,7,255,1224,300,1203,1224
stim,1215,1215,0,641818.829,0.923,0.065,-0.046,-0.376,1993,37,105,2053,85,1045,75,551,1,0.000,3,0,0.279,0.000,0.140,-0.100,0.220,-0.135,-0.081,0.990,0.000,0.000,-0.004,0.000,0.000,0.000,0.000,1,2,0,1,7,255,1224,300,1208,1224
stim,1215,1215,0,641823.829,0.923,0.065,-0.046,-0.376,1991,34,103,2065,91,1048,79,556,1,0.000,3,0,0.294,0.003,0.080,-0.040,0.280,-0.137,-0.080,0.990,-0.002,-0.002,-0.002,0.000,0.000,0.000,0.000,1,2,0,1,7,255,1224,300,1213,1224
stim,1232,1232,0,641828.829,0.923,0.065,-0.046,-0.376,1995,28,105,2057,92,1045,72,553,1,0.000,3,0,0.255,0.006,0.080,-0.100,0.220,-0.135,-0.080,0.989,-0.006,0.000,-0.004,0.000,0.000,0.000,0.000,1,2,0,1,7,255,1224,300,1218,1224
stim,1232,1232,0,641833.829,0.923,0.065,-0.046,-0.376,1994,29,107,2063,99,1046,77,561,1,0.000,3,0,0.205,0.007,0.080,-0.100,0.160,-0.135,-0.080,0.990,-0.006,0.004,-0.004,0.000,0.000,0.000,0.000,1,2,0,1,7,255,1224,300,1223,1224
stim,1232,1232,1,641838.829,0.923,0.065,-0.046,-0.376,1989,30,101,2043,85,1043,74,555,1,0.000,3,0,0.237,0.007,0.080,-0.040,0.220,-0.136,-0.080,0.991,-0.006,0.004,-0.004,0.000,0.000,0.000,0.000,1,2,1,1,7,255,1224,300,4,1224
stim,1232,1232,1,641843.829,0.923,0.065,-0.046,-0.376,1994,29,107,2058,89,1047,77,557,1,0.000,3,0,0.235,0.007,0.140,-0.100,0.160,-0.135,-0.081,0.990,-0.006,0.004,0.002,0.000,0.000,0.000,0.000,1,2,1,1,7,255,1224,300,9,1224
stim,1263,1263,1,641848.829,0.923,0.065,-0.046,-0.376,1991,29,107,2057,86,1051,79,550,1,0.000,3,0,0.205,0.007,0.080,-0.100,0.160,-0.135,-0.080,0.990,-0.006,0.004,0.002,0.000,0.000,0.000,0.000,1,2,1,1,7,255,1224,300,14,1224
stim,1263,1263,1,641853.830,0.923,0.065,-0.046,-0.376,1999,33,105,2063,91,1049,81,555,1,0.000,3,0,0.190,0.006,0.020,-0.100,0.160,-0.136,-0.080,0.991,-0.006,0.002,0.002,0.000,0.000,0.000,0.000,1,2,1,1,7,255,1224,300,19,1224
stim,1263,1263,1,641858.829,0.923,0.065,-0.046,-0.376,1991,31,102,2047,85,1048,75,551,1,0.000,3,0,0.190,0.010,0.020,-0.100,0.160,-0.135,-0.080,0.992,-0.008,0.006,0.012,0.000,0.000,0.000,0.000,1,2,1,1,7,255,1224,300,24,1224
stim,1263,1263,1,641863.829,0.923,0.065,-0.046,-0.376,1994,33,107,2063,99,1048,79,558,1,0.000,3,0,0.134,0.016,0.080,-0.040,0.100,-0.136,-0.079,0.992,-0.012,0.010,0.014,0.000,0.000,0.000,0.000,1,2,1,1,7,255,1224,300,29,1224
stim,1263,1263,1,641868.829,0.923,0.065,-0.046,-0.376,1993,33,103,2059,95,1043,75,553,1,0.000,3,0,0.143,0.013,0.020,-0.100,0.100,-0.135,-0.081,0.991,-0.008,0.010,0.014,0.000,0.000,0.000,0.000,1,2,1,1,7,255,1224,300,34,1224
stim,1263,1263,1,641873.829,0.923,0.065,-0.046,-0.376,2001,28,107,2063,95,1051,79,559,1,0.000,3,0,0.115,0.003,-0.040,-0.040,0.100,-0.135,-0.082,0.991,-0.002,0.002,0.006,0.000,0.000,0.000,0.000,1,2,1,1,7,255,1224,300,39,1224
stim,1279,1279,1,641878.829,0.923,0.064,-0.046,-0.376,1993,28,108,2045,91,1046,75,556,1,0.000,3,0,0.264,0.003,0.140,-0.040,0.220,-0.135,-0.080,0.990,-0.002,0.002,0.006,0.000,0.000,0.000,0.000,1,2,1,1,7,255,1224,300,44,1224
stim,1279,1279,1,641883.829,0.923,0.064,-0.046,-0.376,1997,33,103,2071,93,1045,75,553,1,0.000,3,0,0.257,0.010,0.200,0.020,0.160,-0.137,-0.075,0.993,-0.008,0.006,0.006,0.000,0.000,0.000,0.000,1,2,1,1,7,255,1224,300,49,1224
stim,1280,1280,1,641888.829,0.923,0.064,-0.046,-0.376,1988,27,107,2058,91,1046,77,552,1,0.000,3,0,0.411,0.017,-0.300,0.020,-0.280,-0.137,-0.080,0.993,-0.016,0.006,0.022,0.000,0.000,0.000,0.000,1,2,1,1,7,255,1224,300,54,1224
stim,1280,1280,1,641893.829,0.923,0.064,-0.046,-0.376,1993,35,104,2069,91,1057,78,555,1,0.000,3,0,0.299,0.017,-0.240,-0.160,-0.080,-0.130,-0.086,0.988,-0.016,-0.006,0.022,0.000,0.000,0.000,0.000,1,2,1,1,7,255,1224,300,59,1224
stim,1296,1296,1,641898.829,0.923,0.064,-0.046,-0.376,1983,29,103,2044,87,1042,74,552,1,0.000,3,0,0.937,0.017,0.320,-0.040,0.880,-0.135,-0.072,0.989,-0.016,-0.006,-0.020,0.000,0.000,0.000,0.000,1,2,1,1,7,255,1224,300,64,1224
stim,1311,1311,1,641903.830,0.923,0.064,-0.046,-0.376,2003,30,103,2067,85,1045,75,554,1,0.000,3,0,0.589,0.018,-0.540,0.080,-0.220,-0.144,-0.087,0.992,-0.016,-0.008,-0.020,0.000,0.000,0.000,0.000,1,2,1,1,7,255,1224,300,69,1224
stim,1311,1311,1,641908.829,0.923,0.064,-0.046,-0.376,1993,35,105,2056,92,1049,75,553,1,0.000,3,0,1.144,0.079,1.120,-0.220,-0.080,-0.131,-0.065,0.993,-0.054,0.058,0.010,0.000,0.000,0.000,0.000,1,2,1,1,7,255,1224,300,74,1224
stim,1311,1311,1,641913.829,0.923,0.064,-0.046,-0.376,1997,29,105,2055,97,1050,77,553,1,0.000,3,0,2.083,0.101,-1.820,0.380,-0.940,-0.140,-0.093,0.987,-0.016,-0.100,0.010,0.000,0.000,0.000,0.000,1,2,1,1,7,255,1224,300,79,1224
stim,1311,1311,1,641918.829,0.923,0.064,-0.046,-0.376,1983,27,107,2055,91,1052,77,559,1,0.000,3,0,2.359,0.141,1.840,-0.660,1.320,-0.123,-0.069,0.996,0.012,0.140,0.010,0.000,0.000,0.000,0.000,1,2,1,1,7,255,1224,300,84,1224
stim,1311,1311,1,641923.829,0.923,0.065,-0.046,-0.376,2001,28,104,2061,87,1051,75,556,1,0.000,3,0,3.017,0.119,-2.800,0.880,-0.700,-0.151,-0.096,0.983,0.012,-0.118,-0.012,0.000,0.000,0.000,0.000,1,2,1,1,7,255,1224,300,89,1224
stim,1327,1327,1,641928.829,0.923,0.064,-0.046,-0.376,1993,29,107,2065,91,1051,73,557,1,0.000,3,0,3.183,0.172,2.760,-1.320,0.880,-0.123,-0.051,0.999,-0.004,0.172,0.026,0.000,0.000,0.000,0.000,1,2,1,1,7,255,1224,300,94,1224
stim,1327,1327,1,641933.829,0.923,0.065,-0.046,-0.376,2005,34,104,2063,97,1052,73,553,1,0.000,3,0,3.433,0.224,-2.620,1.840,-1.240,-0.149,-0.112,0.981,-0.004,-0.224,-0.032,0.000,0.000,0.000,0.000,1,2,1,1,7,255,1224,300,99,1224
stim,1365,1365,1,641938.829,0.923,0.064,-0.046,-0.376,1991,31,104,2055,89,1053,77,555,1,0.000,3,0,2.277,0.303,0.800,-2.120,-0.220,-0.120,-0.054,1.005,-0.066,0.296,0.040,0.000,0.000,0.000,0.000,1,2,1,1,7,255,1224,300,104,1224
stim,1365,1365,1,641943.829,0.923,0.064,-0.046,-0.376,1981,27,104,2044,87,1047,75,555,1,0.000,3,0,2.107,0.161,0.560,1.720,1.080,-0.142,-0.092,0.968,0.030,-0.158,-0.046,0.000,0.000,0.000,0.000,1,2,1,1,7,255,1224,300,109,1224
stim,1366,1366,1,641948.829,0.923,0.065,-0.046,-0.376,1991,33,106,2057,89,1054,71,554,1,0.000,3,0,2.393,0.038,-1.940,-0.340,-1.360,-0.139,-0.087,1.018,0.030,-0.024,0.100,0.000,0.000,0.000,0.000,1,2,1,1,7,255,1224,300,114,1224
stim,1366,1366,1,641953.829,0.923,0.064,-0.046,-0.376,1982,27,105,2063,91,1053,75,555,1,0.000,3,0,1.496,0.038,0.560,-1.260,0.580,-0.123,-0.057,0.971,0.030,-0.024,-0.194,0.000,0.000,0.000,0.000,1,2,1,1,7,255,1224,300,119,1224
stim,1366,1366,1,641958.829,0.923,0.065,-0.046,-0.376,1981,31,105,2044,97,1049,74,553,1,0.000,3,0,2.441,0.025,0.380,2.340,0.580,-0.144,-0.088,0.991,-0.006,-0.024,0.022,0.000,0.000,0.000,0.000,1,2,1,1,7,255,1224,300,124,1224
stim,1366,1366,1,641963.829,0.923,0.065,-0.046,-0.376,1992,27,101,2063,88,1046,81,550,1,0.000,3,0,2.361,0.106,-0.900,-1.640,-1.440,-0.146,-0.102,1.008,-0.006,-0.106,0.022,0.000,0.000,0.000,0.000,1,2,1,1,7,255,1224,300,129,1224
stim,1375,1375,1,641968.829,0.923,0.065,-0.046,-0.376,1989,26,103,2067,89,1055,72,555,1,0.000,3,0,0.841,0.106,-0.300,0.200,-0.760,-0.130,-0.072,0.978,-0.006,-0.106,0.022,0.000,0.000,0.000,0.000,1,2,1,1,7,255,1224,300,134,1224
stim,1375,1375,1,641973.829,0.923,0.064,-0.046,-0.376,1991,27,105,2055,90,1049,76,554,1,0.000,3,0,0.728,0.079,0.020,0.440,0.580,-0.125,-0.067,0.993,-0.022,0.076,0.002,0.000,0.000,0.000,0.000,1,2,1,1,7,255,1224,300,139,1224
stim,1375,1375,1,641978.829,0.923,0.064,-0.046,-0.376,1991,25,107,2063,91,1051,72,551,1,0.000,3,0,0.434,0.079,-0.420,-0.040,0.100,-0.137,-0.081,0.992,-0.022,0.076,0.002,0.000,0.000,0.000,0.000,1,2,1,1,7,255,1224,300,144,1224
stim,1375,1375,1,641983.829,0.923,0.064,-0.046,-0.376,1983,22,108,2059,97,1049,81,555,1,0.000,3,0,0.496,0.015,-0.360,0.020,-0.340,-0.136,-0.084,0.990,-0.004,-0.014,0.002,0.000,0.000,0.000,0.000,1,2,1,1,7,255,1224,300,149,1224
stim,1391,1391,1,641988.829,0.923,0.064,-0.046,-0.376,1983,25,104,2058,87,1055,77,551,1,0.000,3,0,0.222,0.016,0.020,0.020,-0.220,-0.134,-0.080,0.987,0.008,-0.014,0.002,0.000,0.000,0.000,0.000,1,2,1,1,7,255,1224,300,154,1224
stim,1391,1391,1,641993.829,0.923,0.064,-0.046,-0.376,1982,28,104,2048,91,1051,75,544,1,0.000,3,0,0.245,0.010,0.140,0.200,-0.020,-0.134,-0.078,0.990,0.008,0.006,-0.002,0.000,0.000,0.000,0.000,1,2,1,1,7,255,1224,300,159,1224
stim,1408,1408,1,641998.829,0.923,0.064,-0.046,-0.376,1992,25,104,2059,85,1051,72,552,1,0.000,3,0,0.115,0.008,0.020,0.080,-0.080,-0.136,-0.082,0.993,0.006,0.006,-0.002,0.000,0.000,0.000,0.000,1,2,1,1,7,255,1224,300,164,1224
stim,1408,1408,1,642003.829,0.923,0.064,-0.046,-0.376,1971,27,102,2037,85,1044,74,551,1,0.000,3,0,0.321,0.012,-0.220,0.080,-0.220,-0.136,-0.083,0.991,0.006,-0.010,0.008,0.000,0.000,0.000,0.000,1,2,1,1,7,255,1224,300,169,1224
stim,1408,1408,1,642008.829,0.923,0.064,-0.046,-0.376,1987,28,103,2055,87,1046,77,555,1,0.000,3,0,0.496,0.023,-0.360,0.020,-0.340,-0.137,-0.084,0.991,0.008,-0.022,0.010,0.000,0.000,0.000,0.000,1,2,1,1,7,255,1224,300,174,1224
stim,1408,1408,1,642013.829,0.923,0.064,-0.046,-0.376,1976,8,103,2057,93,1047,81,555,1,0.000,3,0,0.505,0.023,-0.420,0.020,-0.280,-0.136,-0.082,0.991,0.008,-0.022,0.008,0.000,0.000,0.000,0.000,1,2,1,1,7,255,1224,300,179,1224
stim,1424,1424,1,642018.830,0.923,0.064,-0.046,-0.376,1992,4,99,2057,90,1051,73,551,1,0.000,3,0,0.526,0.013,-0.480,0.080,-0.200,-0.135,-0.080,0.989,0.004,-0.012,0.008,0.000,0.000,0.000,0.000,1,2,1,1,7,255,1224,300,184,1224
stim,1424,1424,1,642023.829,0.923,0.064,-0.046,-0.376,1983,11,97,2063,86,1043,75,541,1,0.000,3,0,0.311,0.002,-0.300,0.020,-0.080,-0.134,-0.079,0.989,0.000,0.002,-0.010,0.000,0.000,0.000,0.000,1,2,1,1,7,255,1224,300,189,1224
stim,1424,1424,1,642028.829,0.923,0.064,-0.046,-0.376,1992,12,101,2063,87,1048,77,548,1,0.000,3,0,0.265,0.018,-0.240,0.080,-0.080,-0.133,-0.079,0.990,0.000,0.018,-0.010,0.000,0.000,0.000,0.000,1,2,1,1,7,255,1224,300,194,1224
stim,1424,1424,1,642033.829,0.923,0.064,-0.046,-0.376,1989,20,101,2063,81,1050,75,541,1,0.000,3,0,0.180,0.022,-0.160,0.080,-0.020,-0.134,-0.078,0.990,-0.002,0.022,-0.008,0.000,0.000,0.000,0.000,1,2,1,1,7,255,1224,300,199,1224
stim,1456,1456,1,642038.829,0.923,0.064,-0.046,-0.376,1987,26,99,2056,84,1045,75,544,1,0.000,3,0,0.177,0.022,-0.100,0.140,0.040,-0.133,-0.079,0.990,0.002,0.022,-0.008,0.000,0.000,0.000,0.000,1,2,1,1,7,255,1224,300,204,1224
stim,1456,1456,1,642043.829,0.923,0.064,-0.046,-0.376,1983,20,100,2063,83,1053,79,547,1,0.000,3,0,0.130,0.021,-0.100,0.020,-0.080,-0.135,-0.079,0.990,-0.006,0.020,-0.002,0.000,0.000,0.000,0.000,1,2,1,1,7,255,1224,300,209,1224
stim,1456,1456,1,642048.829,0.923,0.064,-0.046,-0.376,1980,22,104,2057,85,1051,76,548,1,0.000,3,0,0.227,0.010,-0.160,0.080,-0.140,-0.137,-0.082,0.989,0.002,0.010,-0.008,0.000,0.000,0.000,0.000,1,2,1,1,7,255,1224,300,214,1224
stim,1456,1456,1,642053.829,0.923,0.064,-0.046,-0.376,1982,0,104,2054,89,1043,77,552,1,0.000,3,0,0.279,0.028,-0.240,0.020,-0.140,-0.138,-0.087,0.989,0.002,-0.028,0.000,0.000,0.000,0.000,0.000,1,2,1,1,7,255,1224,300,219,1224
stim,1457,1457,1,642058.829,0.923,0.064,-0.046,-0.376,1981,7,103,2057,83,1051,72,544,1,0.000,3,0,0.180,0.066,-0.160,0.020,-0.080,-0.139,-0.086,0.990,0.016,-0.064,0.002,0.000,0.000,0.000,0.000,1,2,1,1,7,255,1224,300,224,1224
stim,1457,1457,1,642063.829,0.923,0.064,-0.046,-0.376,1988,11,103,2063,82,1053,75,547,1,0.000,3,0,0.166,0.066,-0.160,0.020,0.040,-0.136,-0.083,0.992,0.016,-0.064,0.010,0.000,0.000,0.000,0.000,1,2,1,1,7,255,1224,300,229,1224
stim,1489,1489,1,642068.829,0.923,0.064,-0.046,-0.376,1980,21,108,2063,84,1052,77,547,1,0.000,3,0,0.162,0.032,0.020,0.020,0.160,-0.133,-0.082,0.992,0.016,-0.028,0.014,0.000,0.000,0.000,0.000,1,2,1,1,7,255,1224,300,234,1224
stim,1489,1489,1,642073.829,0.923,0.064,-0.046,-0.376,1984,28,110,2059,83,1048,80,544,1,0.000,3,0,0.180,0.017,0.080,0.020,0.160,-0.131,-0.076,0.990,0.016,0.006,0.014,0.000,0.000,0.000,0.000,1,2,1,1,7,255,1224,300,239,1224
stim,1489,1489,1,642078.829,0.923,0.064,-0.046,-0.376,1976,28,103,2043,87,1043,75,543,1,0.000,3,0,0.085,0.020,0.080,0.020,-0.020,-0.134,-0.078,0.989,-0.004,0.020,-0.008,0.000,0.000,0.000,0.000,1,2,1,1,7,255,1224,300,244,1224
stim,1489,1489,1,642083.829,0.923,0.064,-0.046,-0.376,1981,22,103,2063,90,1048,75,549,1,0.000,3,0,0.049,0.020,-0.040,0.020,-0.020,-0.136,-0.083,0.989,-0.004,0.020,-0.008,0.000,0.000,0.000,0.000,1,2,1,1,7,255,1224,300,249,1224
stim,1489,1489,1,642088.829,0.923,0.064,-0.046,-0.376,1989,25,104,2060,89,1044,77,544,1,0.000,3,0,0.098,0.027,-0.040,0.080,0.040,-0.138,-0.084,0.988,0.008,-0.026,-0.012,0.000,0.000,0.000,0.000,1,2,1,1,7,255,1224,300,254,1224
stim,1489,1489,1,642093.829,0.923,0.064,-0.046,-0.376,1991,21,105,2073,88,1045,80,549,1,0.000,3,0,0.180,0.028,0.080,0.020,0.160,-0.135,-0.082,0.991,0.010,-0.026,-0.006,0.000,0.000,0.000,0.000,1,2,1,1,7,255,1224,300,259,1224
stim,1508,1508,1,642098.829,0.923,0.064,-0.046,-0.376,1983,26,100,2056,76,1047,75,544,1,0.000,3,0,0.262,0.016,0.140,0.020,0.220,-0.129,-0.077,0.991,0.014,-0.008,-0.004,0.000,0.000,0.000,0.000,1,2,1,1,7,255,1224,300,264,1224
stim,1508,1508,1,642103.830,0.923,0.064,-0.046,-0.376,1981,25,107,2055,73,1051,75,553,1,0.000,3,0,0.279,0.064,0.260,0.020,0.100,-0.130,-0.074,0.989,0.014,0.062,-0.004,0.000,0.000,0.000,0.000,1,2,1,1,7,255,1224,300,269,1224
stim,1508,1508,1,642108.829,0.923,0.064,-0.046,-0.376,1983,19,101,2058,84,1053,78,551,1,0.000,3,0,0.314,0.062,0.140,0.020,-0.280,-0.137,-0.082,0.988,0.000,0.062,-0.014,0.000,0.000,0.000,0.000,1,2,1,1,7,255,1224,300,274,1224
stim,1508,1508,1,642113.829,0.923,0.064,-0.046,-0.376,1987,0,103,2056,69,1043,75,544,1,0.000,3,0,0.357,0.027,-0.100,-0.040,-0.340,-0.143,-0.086,0.990,-0.006,-0.026,-0.014,0.000,0.000,0.000,0.000,1,2,1,1,7,255,1224,300,279,1224
stim,1514,1514,1,642118.829,0.923,0.064,-0.046,-0.376,1979,17,107,2058,83,1051,81,541,1,0.000,3,0,0.227,0.076,-0.220,-0.040,0.040,-0.140,-0.086,0.992,0.000,-0.076,0.012,0.000,0.000,0.000,0.000,1,2,1,1,7,255,1224,300,284,1224
stim,1514,1514,1,642123.829,0.923,0.064,-0.046,-0.376,1991,23,101,2054,83,1051,74,541,1,0.000,3,0,0.281,0.076,0.020,0.020,0.280,-0.134,-0.078,0.992,-0.004,-0.076,0.016,0.000,0.000,0.000,0.000,1,2,1,1,7,255,1224,300,289,1224
stim,1523,1523,1,642128.829,0.923,0.064,-0.046,-0.376,1993,29,107,2063,60,1051,73,547,1,0.000,3,0,0.314,0.028,0.140,0.020,0.280,-0.131,-0.075,0.990,-0.004,0.028,0.016,0.000,0.000,0.000,0.000,1,2,1,1,7,255,1224,300,294,1224
stim,1523,1523,1,642133.829,0.923,0.064,-0.046,-0.376,1993,26,95,2063,89,1051,79,541,1,0.000,3,0,0.147,0.029,0.140,0.020,0.040,-0.136,-0.079,0.989,-0.006,0.028,-0.008,0.000,0.000,0.000,0.000,1,2,1,1,7,255,1224,300,299,1224
stim,1536,1536,0,642138.829,0.923,0.064,-0.046,-0.376,1992,22,97,2057,87,1050,76,549,1,0.000,3,0,0.104,0.007,0.020,0.020,0.100,-0.139,-0.084,0.990,-0.006,-0.004,-0.008,0.000,0.000,0.000,0.000,1,2,0,1,7,255,1224,300,304,1224
stim,1536,1536,0,642143.829,0.923,0.064,-0.046,-0.376,1990,24,99,2065,85,1048,76,543,1,0.000,3,0,0.352,0.006,0.080,-0.040,0.340,-0.134,-0.081,0.992,0.004,-0.004,0.004,0.000,0.000,0.000,0.000,1,2,0,1,7,255,1224,300,309,1224
stim,1569,1569,0,642148.829,0.923,0.064,-0.046,-0.376,1998,33,103,2058,84,1049,77,545,1,0.000,3,0,0.479,0.009,0.260,-0.040,0.400,-0.127,-0.073,0.991,0.008,0.004,0.004,0.000,0.000,0.000,0.000,1,2,0,1,7,255,1224,300,314,1224
stim,1569,1569,0,642153.830,0.923,0.064,-0.046,-0.376,2008,27,103,2072,80,1049,78,552,1,0.000,3,0,0.224,0.057,0.200,-0.100,-0.020,-0.131,-0.075,0.989,0.008,0.056,-0.010,0.000,0.000,0.000,0.000,1,2,0,1,7,255,1224,300,319,1224
stim,1569,1569,0,642158.829,0.923,0.064,-0.046,-0.376,2005,25,107,2065,87,1048,77,544,1,0.000,3,0,0.343,0.056,0.020,-0.040,-0.340,-0.141,-0.083,0.989,-0.006,0.056,-0.010,0.000,0.000,0.000,0.000,1,2,0,1,7,255,1224,300,324,1224
stim,1569,1569,0,642163.829,0.923,0.064,-0.046,-0.376,1994,28,105,2063,85,1052,81,552,1,0.000,3,0,0.098,0.062,-0.040,-0.040,-0.080,-0.141,-0.085,0.990,-0.006,-0.062,0.002,0.000,0.000,0.000,0.000,1,2,0,1,7,255,1224,300,329,1224
stim,1569,1569,0,642168.829,0.923,0.064,-0.046,-0.376,1995,26,104,2073,93,1059,74,543,1,0.000,3,0,0.190,0.062,0.020,-0.100,0.160,-0.137,-0.083,0.991,0.002,-0.062,0.010,0.000,0.000,0.000,0.000,1,2,0,1,7,255,1224,300,334,1224
stim,1569,1569,0,642173.829,0.923,0.064,-0.046,-0.376,2004,26,101,2071,91,1043,76,552,1,0.000,3,0,0.264,0.034,0.140,-0.040,0.220,-0.134,-0.078,0.991,0.002,-0.034,0.010,0.000,0.000,0.000,0.000,1,2,0,1,7,255,1224,300,339,1224
stim,1584,1584,0,642178.829,0.923,0.064,-0.046,-0.376,2003,28,99,2073,86,1051,75,551,1,0.000,3,0,0.255,0.020,0.080,-0.100,0.220,-0.133,-0.078,0.991,0.008,0.018,0.002,0.000,0.000,0.000,0.000,1,2,0,1,7,255,1224,300,344,1224
stim,1584,1584,0,642183.829,0.923,0.064,-0.046,-0.376,2001,29,99,2065,83,1043,75,552,1,0.000,3,0,0.162,0.022,0.020,0.020,0.160,-0.134,-0.077,0.990,0.000,0.022,0.000,0.000,0.000,0.000,0.000,1,2,0,1,7,255,1224,300,349,1224
stim,1584,1584,0,642188.829,0.923,0.064,-0.046,-0.376,1993,28,95,2069,87,1049,83,547,1,0.000,3,0,0.227,0.023,-0.040,-0.040,0.220,-0.135,-0.080,0.991,0.008,0.022,0.000,0.000,0.000,0.000,0.000,1,2,0,1,7,255,1224,300,354,1224
stim,1584,1584,0,642193.829,0.923,0.064,-0.046,-0.376,2009,28,107,2061,93,1045,73,551,1,0.000,3,0,0.193,0.006,-0.160,-0.040,0.100,-0.138,-0.081,0.991,-0.004,0.004,0.004,0.000,0.000,0.000,0.000,1,2,0,1,7,255,1224,300,359,1224
stim,1599,1599,0,642198.829,0.923,0.064,-0.046,-0.376,2007,25,105,2073,87,1051,77,555,1,0.000,3,0,0.134,0.027,-0.040,-0.100,-0.080,-0.138,-0.083,0.991,0.006,-0.026,0.010,0.000,0.000,0.000,0.000,1,2,0,1,7,255,1224,300,364,1224
stim,1599,1599,0,642203.829,0.923,0.064,-0.046,-0.376,2003,35,103,2071,88,1043,81,551,1,0.000,3,0,0.180,0.027,0.080,-0.160,-0.020,-0.133,-0.078,0.990,0.006,-0.026,0.010,0.000,0.000,0.000,0.000,1,2,0,1,7,255,1224,300,369,1224
stim,1615,1615,0,642208.829,0.923,0.064,-0.046,-0.376,2003,24,104,2063,91,1052,77,554,1,0.000,3,0,0.474,0.023,0.080,0.080,0.460,-0.132,-0.075,0.988,0.006,0.022,-0.008,0.000,0.000,0.000,0.000,1,2,0,1,7,255,1224,300,374,1224
stim,1615,1615,0,642213.829,0.923,0.064,-0.046,-0.376,2010,27,107,2065,89,1049,77,549,1,0.000,3,0,0.580,0.022,-0.160,0.200,0.520,-0.140,-0.084,0.987,0.000,0.022,-0.018,0.000,0.000,0.000,0.000,1,2,0,1,7,255,1224,300,379,1224
stim,1615,1615,0,642218.829,0.923,0.064,-0.046,-0.376,2013,33,101,2069,93,1053,75,556,1,0.000,3,0,1.026,0.068,-0.300,-0.280,-0.940,-0.146,-0.095,0.996,0.000,-0.068,-0.018,0.000,0.000,0.000,0.000,1,2,0,1,7,255,1224,300,384,1224
stim,1615,1615,0,642223.829,0.923,0.064,-0.046,-0.376,2011,27,109,2071,91,1047,79,554,1,0.000,3,0,1.062,0.075,0.140,-0.660,-0.820,-0.124,-0.072,0.991,0.032,-0.068,-0.016,0.000,0.000,0.000,0.000,1,2,0,1,7,255,1224,300,389,1224
stim,1631,1631,0,642228.829,0.923,0.064,-0.046,-0.376,2007,26,107,2075,91,1057,73,552,1,0.000,3,0,2.256,0.138,0.380,0.440,2.180,-0.119,-0.055,0.979,0.032,0.134,-0.016,0.000,0.000,0.000,0.000,1,2,0,1,7,255,1224,300,394,1224
stim,1631,1631,0,642233.829,0.923,0.064,-0.046,-0.376,1995,27,105,2077,88,1045,77,550,1,0.000,3,0,0.895,0.135,-0.040,0.680,0.580,-0.159,-0.105,0.995,0.016,0.134,-0.016,0.000,0.000,0.000,0.000,1,2,0,1,7,255,1224,300,399,1224
stim,1663,1663,0,642238.829,0.923,0.064,-0.046,-0.376,1998,35,111,2075,91,1050,77,557,1,0.000,3,0,3.418,0.171,-0.540,-1.380,-3.080,-0.143,-0.101,1.007,0.016,-0.170,0.098,0.000,0.000,0.000,0.000,1,2,0,1,7,255,1224,300,404,1224
stim,1663,1663,0,642243.829,0.923,0.064,-0.046,-0.376,1993,28,110,2073,88,1046,81,548,1,0.000,3,0,1.818,0.171,0.200,-0.160,1.800,-0.106,-0.035,0.969,0.016,-0.170,0.098,0.000,0.000,0.000,0.000,1,2,0,1,7,255,1224,300,409,1224
stim,1663,1663,0,642248.829,0.923,0.064,-0.046,-0.376,2010,30,106,2071,93,1049,80,551,1,0.000,3,0,2.362,0.170,0.740,1.720,1.440,-0.152,-0.097,0.990,0.002,-0.170,0.030,0.000,0.000,0.000,0.000,1,2,0,1,7,255,1224,300,414,1224
stim,1663,1663,0,642253.829,0.923,0.064,-0.046,-0.376,1999,30,107,2063,87,1047,75,555,1,0.000,3,0,3.754,0.128,-1.200,-1.880,-3.020,-0.139,-0.101,1.017,0.002,-0.128,0.030,0.000,0.000,0.000,0.000,1,2,0,1,7,255,1224,300,419,1224
stim,1663,1663,0,642258.829,0.923,0.064,-0.046,-0.376,2009,27,104,2063,89,1053,83,559,1,0.000,3,0,2.492,0.128,0.500,0.320,2.420,-0.123,-0.043,0.959,0.002,-0.128,0.030,0.000,0.000,0.000,0.000,1,2,0,1,7,255,1224,300,424,1224
stim,1679,1679,0,642263.829,0.923,0.064,-0.046,-0.376,1983,25,105,2055,91,1055,73,549,1,0.000,3,0,1.706,0.182,0.500,1.240,-1.060,-0.145,-0.110,1.007,0.130,-0.128,0.198,0.000,0.000,0.000,0.000,1,2,0,1,7,255,1224,300,429,1224
stim,1679,1679,0,642268.829,0.923,0.064,-0.046,-0.376,2013,29,107,2063,92,1045,76,553,1,0.000,3,0,2.502,0.189,-1.580,-1.940,-0.020,-0.131,-0.061,0.992,-0.098,0.162,-0.002,0.000,0.000,0.000,0.000,1,2,0,1,7,255,1224,300,434,1224
stim,1679,1679,0,642273.829,0.923,0.064,-0.046,-0.376,2004,30,105,2069,87,1043,75,544,1,0.000,3,0,2.507,0.074,1.780,1.720,0.400,-0.138,-0.085,0.980,0.024,-0.070,-0.002,0.000,0.000,0.000,0.000,1,2,0,1,7,255,1224,300,439,1224
stim,1679,1679,0,642278.829,0.923,0.064,-0.046,-0.376,1999,35,109,2065,93,1044,81,553,1,0.000,3,0,2.498,0.047,-2.000,-1.380,-0.580,-0.130,-0.082,1.004,0.024,0.040,-0.002,0.000,0.000,0.000,0.000,1,2,0,1,7,255,1224,300,444,1224
stim,1679,1679,0,642283.829,0.923,0.064,-0.046,-0.376,1993,30,107,2043,89,1047,79,551,1,0.000,3,0,1.753,0.025,1.480,0.740,0.580,-0.141,-0.072,0.977,0.024,-0.006,-0.092,0.000,0.000,0.000,0.000,1,2,0,1,7,255,1224,300,449,1224
stim,1679,1679,0,642288.829,0.923,0.064,-0.046,-0.376,1991,28,105,2053,91,1045,75,550,1,0.000,3,0,1.735,0.058,-1.520,-0.540,-0.640,-0.127,-0.093,1.002,0.058,-0.006,0.114,0.000,0.000,0.000,0.000,1,2,0,1,7,255,1224,300,454,1224
stim,1679,1679,0,642293.829,0.923,0.064,-0.046,-0.376,1981,33,104,2063,89,1045,78,549,1,0.000,3,0,1.088,0.092,0.920,0.260,0.520,-0.143,-0.067,0.979,-0.092,-0.006,-0.114,0.000,0.000,0.000,0.000,1,2,0,1,7,255,1224,300,459,1224
stim,1679,1679,0,642298.829,0.923,0.064,-0.046,-0.376,2009,37,104,2070,90,1055,83,554,1,0.000,3,0,1.107,0.153,-1.020,-0.160,-0.400,-0.126,-0.095,1.000,0.152,-0.018,0.098,0.000,0.000,0.000,0.000,1,2,0,1,7,255,1224,300,464,1224
stim,1695,1695,0,642303.830,0.923,0.064,-0.046,-0.376,2013,28,104,2053,86,1045,74,549,1,0.000,3,0,0.685,0.134,0.620,0.080,0.280,-0.142,-0.066,0.982,-0.132,0.022,-0.078,0.000,0.000,0.000,0.000,1,2,0,1,7,255,1224,300,469,1224
stim,1695,1695,0,642308.829,0.923,0.064,-0.046,-0.376,2007,28,112,2053,85,1058,81,555,1,0.000,3,0,0.793,0.138,-0.780,0.020,-0.140,-0.129,-0.092,0.997,0.136,-0.024,0.064,0.000,0.000,0.000,0.000,1,2,0,1,7,255,1224,300,474,1224
stim,1711,1711,0,642313.829,0.923,0.064,-0.046,-0.376,1997,31,108,2057,92,1047,77,551,1,0.000,3,0,0.442,0.093,0.440,-0.040,-0.020,-0.141,-0.072,0.985,-0.092,0.010,-0.046,0.000,0.000,0.000,0.000,1,2,0,1,7,255,1224,300,479,1224
stim,1711,1711,0,642318.829,0.923,0.064,-0.046,-0.376,1996,35,105,2058,89,1050,81,553,1,0.000,3,0,0.422,0.080,-0.420,0.020,0.040,-0.130,-0.085,0.994,0.080,0.000,0.032,0.000,0.000,0.000,0.000,1,2,0,1,7,255,1224,300,484,1224
stim,1727,1727,0,642323.829,0.923,0.064,-0.046,-0.376,1997,33,107,2067,90,1046,75,553,1,0.000,3,0,0.190,0.040,-0.100,0.140,-0.080,-0.139,-0.077,0.987,-0.040,0.000,-0.026,0.000,0.000,0.000,0.000,1,2,0,1,7,255,1224,300,489,1224
stim,1727,1727,0,642328.829,0.923,0.064,-0.046,-0.376,1997,37,105,2057,99,1046,81,563,1,0.000,3,0,0.216,0.010,0.140,-0.160,0.040,-0.134,-0.079,0.994,0.010,0.000,0.030,0.000,0.000,0.000,0.000,1,2,0,1,7,255,1224,300,494,1224
stim,1727,1727,0,642333.829,0.923,0.064,-0.046,-0.376,2011,30,103,2058,98,1059,78,556,1,0.000,3,0,0.494,0.014,-0.420,0.260,-0.020,-0.134,-0.086,0.987,0.010,-0.010,-0.026,0.000,0.000,0.000,0.000,1,2,0,1,7,255,1224,300,499,1224
stim,1727,1727,0,642338.829,0.923,0.064,-0.047,-0.376,2005,35,114,2067,94,1045,81,551,1,0.000,3,0,0.166,0.028,0.020,-0.160,0.040,-0.140,-0.069,0.990,0.010,0.026,-0.006,0.000,0.000,0.000,0.000,1,2,0,1,7,255,1224,300,504,1224
stim,1776,1776,0,642343.829,0.923,0.064,-0.046,-0.376,2007,27,109,2071,95,1054,76,554,1,0.000,3,0,0.162,0.068,0.020,0.080,-0.140,-0.128,-0.092,0.992,0.058,-0.036,-0.006,0.000,0.000,0.000,0.000,1,2,0,1,7,255,1224,300,509,1224
stim,1776,1776,0,642348.829,0.923,0.064,-0.047,-0.376,2007,29,113,2077,89,1049,75,551,1,0.000,3,0,0.577,0.102,-0.540,0.200,0.040,-0.141,-0.070,0.987,-0.098,0.030,-0.006,0.000,0.000,0.000,0.000,1,2,0,1,7,255,1224,300,514,1224
stim,1776,1776,0,642353.829,0.923,0.064,-0.047,-0.376,1997,27,103,2063,91,1048,76,557,1,0.000,3,0,0.413,0.013,0.320,-0.220,-0.140,-0.135,-0.080,0.991,0.010,0.008,0.008,0.000,0.000,0.000,0.000,1,2,0,1,7,255,1224,300,519,1224
stim,1776,1776,0,642358.829,0.923,0.064,-0.046,-0.376,1998,35,105,2071,93,1054,83,557,1,0.000,3,0,0.525,0.013,-0.480,0.140,0.160,-0.131,-0.093,0.992,0.010,0.008,0.008,0.000,0.000,0.000,0.000,1,2,0,1,7,255,1224,300,524,1224
stim,1776,1776,0,642363.829,0.923,0.064,-0.047,-0.376,2007,33,110,2067,87,1045,81,553,1,0.000,3,0,0.255,0.013,-0.160,0.140,-0.140,-0.142,-0.063,0.986,0.010,0.008,0.008,0.000,0.000,0.000,0.000,1,2,0,1,7,255,1224,300,529,1224
stim,1776,1776,0,642368.829,0.923,0.064,-0.047,-0.376,2011,31,109,2058,93,1045,75,560,1,0.000,3,0,0.336,0.040,0.260,-0.160,-0.140,-0.133,-0.082,0.993,0.040,0.004,0.020,0.000,0.000,0.000,0.000,1,2,0,1,7,255,1224,300,534,1224
stim,1776,1776,0,642373.829,0.923,0.064,-0.047,-0.376,2007,35,104,2060,91,1051,80,561,1,0.000,3,0,0.589,0.040,-0.540,0.080,0.220,-0.131,-0.098,0.993,0.040,0.004,0.028,0.000,0.000,0.000,0.000,1,2,0,1,7,255,1224,300,539,1224
stim,1776,1776,0,642378.829,0.923,0.064,-0.047,-0.376,2013,37,106,2059,91,1051,79,563,1,0.000,3,0,0.289,0.040,-0.240,0.140,-0.080,-0.140,-0.065,0.985,0.040,0.004,0.028,0.000,0.000,0.000,0.000,1,2,0,1,7,255,1224,300,544,1224
stim,1776,1776,0,642383.829,0.923,0.064,-0.047,-0.375,2001,27,105,2065,87,1048,81,554,1,0.000,3,0,0.732,0.079,0.560,-0.100,-0.460,-0.136,-0.071,0.991,-0.052,0.060,0.004,0.000,0.000,0.000,0.000,1,2,0,1,7,255,1224,300,549,1224
stim,1776,1776,0,642388.829,0.923,0.064,-0.047,-0.375,1995,33,104,2053,86,1045,75,544,1,0.000,3,0,0.580,0.079,-0.420,0.020,0.400,-0.130,-0.100,0.997,-0.052,0.060,0.004,0.000,0.000,0.000,0.000,1,2,0,1,7,255,1224,300,554,1224
stim,1791,1791,0,642393.829,0.923,0.064,-0.047,-0.375,1995,31,111,2073,88,1048,75,551,1,0.000,3,0,0.988,0.030,-0.900,0.080,0.400,-0.138,-0.080,0.985,-0.014,-0.026,0.004,0.000,0.000,0.000,0.000,1,2,0,1,7,255,1224,300,559,1224
stim,1791,1791,0,642398.829,0.923,0.064,-0.047,-0.375,1992,31,103,2056,88,1047,77,549,1,0.000,3,0,0.935,0.030,0.620,0.020,-0.700,-0.139,-0.058,0.985,-0.014,-0.026,-0.044,0.000,0.000,0.000,0.000,1,2,0,1,7,255,1224,300,564,1224
stim,1791,1791,0,642403.829,0.923,0.064,-0.047,-0.375,1992,30,108,2073,87,1051,79,555,1,0.000,3,0,0.789,0.017,0.680,0.020,-0.400,-0.129,-0.086,0.999,-0.014,0.010,-0.044,0.000,0.000,0.000,0.000,1,2,0,1,7,255,1224,300,569,1224
stim,1808,1808,0,642408.829,0.923,0.064,-0.047,-0.375,1995,33,107,2057,89,1047,77,551,1,0.000,3,0,1.394,0.097,-1.080,-0.040,0.880,-0.133,-0.100,0.995,0.096,0.010,0.060,0.000,0.000,0.000,0.000,1,2,0,1,7,255,1224,300,574,1224
stim,1808,1808,0,642413.829,0.923,0.064,-0.047,-0.375,2008,33,113,2063,88,1045,76,558,1,0.000,3,0,1.065,0.097,-0.960,0.020,0.460,-0.142,-0.070,0.979,0.096,0.010,0.060,0.000,0.000,0.000,0.000,1,2,0,1,7,255,1224,300,579,1224
stim,1808,1808,0,642418.829,0.923,0.064,-0.047,-0.375,2003,35,111,2055,89,1047,78,553,1,0.000,3,0,1.586,0.114,1.060,0.020,-1.180,-0.138,-0.065,0.986,-0.114,0.010,-0.050,0.000,0.000,0.000,0.000,1,2,0,1,7,255,1224,300,584,1224
stim,1808,1808,0,642423.829,0.923,0.064,-0.047,-0.375,1995,35,106,2067,93,1047,81,557,1,0.000,3,0,1.025,0.114,0.800,-0.040,-0.640,-0.125,-0.091,1.001,-0.114,0.010,-0.050,0.000,0.000,0.000,0.000,1,2,0,1,7,255,1224,300,589,1224
stim,1826,1826,0,642428.829,0.923,0.064,-0.047,-0.375,1993,30,107,2055,88,1044,75,551,1,0.000,3,0,1.747,0.116,-1.140,-0.100,1.320,-0.132,-0.092,0.995,0.116,0.004,0.052,0.000,0.000,0.000,0.000,1,2,0,1,7,255,1224,300,594,1224
stim,1826,1826,0,642433.829,0.923,0.064,-0.047,-0.375,2010,36,111,2057,88,1052,77,551,1,0.000,3,0,1.486,0.116,-1.020,-0.040,1.080,-0.147,-0.068,0.982,0.116,-0.008,0.052,0.000,0.000,0.000,0.000,1,2,0,1,7,255,1224,300,599,1224
stim,1840,1840,0,642438.829,0.923,0.064,-0.047,-0.375,2009,31,109,2055,89,1047,75,557,1,0.000,3,0,1.368,0.110,0.560,0.140,-1.240,-0.143,-0.071,0.986,-0.110,-0.008,-0.040,0.000,0.000,0.000,0.000,1,2,0,1,7,255,1224,300,604,1224
stim,1840,1840,0,642443.829,0.924,0.064,-0.047,-0.375,2007,35,109,2058,94,1045,81,554,1,0.000,3,0,1.893,0.110,0.740,0.080,-1.740,-0.125,-0.090,0.995,-0.110,0.006,-0.040,0.000,0.000,0.000,0.000,1,2,0,1,7,255,1224,300,609,1224
stim,1873,1873,0,642448.829,0.923,0.064,-0.047,-0.375,1991,29,109,2063,91,1047,74,557,1,0.000,3,0,0.822,0.158,-0.420,-0.100,0.700,-0.121,-0.090,0.995,0.158,0.010,0.032,0.000,0.000,0.000,0.000,1,2,0,1,7,255,1224,300,614,1224
stim,1873,1873,0,642453.829,0.923,0.064,-0.047,-0.375,2012,38,109,2066,95,1051,77,557,1,0.000,3,0,2.174,0.159,-0.540,-0.160,2.100,-0.140,-0.074,0.989,0.158,0.014,0.032,0.000,0.000,0.000,0.000,1,2,0,1,7,255,1224,300,619,1224
stim,1874,1874,0,642458.829,0.923,0.064,-0.047,-0.375,1994,28,110,2075,90,1057,76,553,1,0.000,3,0,0.224,0.067,-0.040,0.020,0.220,-0.152,-0.070,0.990,-0.066,0.014,0.010,0.000,0.000,0.000,0.000,1,2,0,1,7,255,1224,300,624,1224
stim,1874,1874,0,642463.829,0.924,0.064,-0.047,-0.375,1999,35,109,2065,92,1059,82,557,1,0.000,3,0,1.990,0.068,0.140,0.140,-1.980,-0.139,-0.080,0.992,-0.066,-0.018,0.010,0.000,0.000,0.000,0.000,1,2,0,1,7,255,1224,300,629,1224
stim,1875,1875,0,642468.829,0.924,0.064,-0.047,-0.375,2013,37,113,2059,95,1049,76,555,1,0.000,3,0,1.303,0.021,-0.040,0.080,-1.300,-0.121,-0.088,0.991,-0.010,-0.018,0.010,0.000,0.000,0.000,0.000,1,2,0,1,7,255,1224,300,634,1224
stim,1875,1875,0,642473.829,0.924,0.064,-0.047,-0.375,2009,31,107,2069,88,1047,83,551,1,0.000,3,0,1.156,0.121,-0.160,-0.100,1.140,-0.125,-0.085,0.989,0.116,0.036,-0.008,0.000,0.000,0.000,0.000,1,2,0,1,7,255,1224,300,639,1224
stim,1875,1875,0,642478.829,0.923,0.064,-0.047,-0.375,1999,27,109,2057,88,1049,79,552,1,0.000,3,0,1.714,0.121,-0.300,-0.160,1.680,-0.143,-0.079,0.990,0.116,0.036,-0.008,0.000,0.000,0.000,0.000,1,2,0,1,7,255,1224,300,644,1224
stim,1875,1875,0,642483.829,0.923,0.064,-0.047,-0.375,2007,28,109,2073,90,1050,77,558,1,0.000,3,0,0.104,0.070,-0.100,0.020,-0.020,-0.149,-0.075,0.989,-0.056,-0.042,0.004,0.000,0.000,0.000,0.000,1,2,0,1,7,255,1224,300,649,1224
stim,1888,1888,0,642488.829,0.924,0.064,-0.047,-0.375,2004,27,107,2067,89,1052,75,555,1,0.000,3,0,1.461,0.070,0.200,0.140,-1.440,-0.136,-0.078,0.989,-0.056,-0.042,0.004,0.000,0.000,0.000,0.000,1,2,0,1,7,255,1224,300,654,1224
stim,1888,1888,0,642493.829,0.924,0.064,-0.047,-0.375,2003,31,109,2077,87,1045,75,552,1,0.000,3,0,0.751,0.010,0.260,0.080,-0.700,-0.126,-0.083,0.992,-0.008,0.006,0.004,0.000,0.000,0.000,0.000,1,2,0,1,7,255,1224,300,659,1224
stim,1888,1888,0,642498.829,0.924,0.064,-0.047,-0.375,2010,33,107,2067,87,1044,75,566,1,0.000,3,0,0.768,0.066,-0.100,-0.040,0.760,-0.130,-0.082,0.994,0.058,0.032,0.010,0.000,0.000,0.000,0.000,1,2,0,1,7,255,1224,300,664,1224
stim,1888,1888,0,642503.830,0.923,0.064,-0.047,-0.375,2009,37,111,2071,89,1041,79,559,1,0.000,3,0,1.155,0.066,-0.540,-0.040,1.020,-0.140,-0.077,0.992,0.058,0.032,0.018,0.000,0.000,0.000,0.000,1,2,0,1,7,255,1224,300,669,1224
stim,1904,1904,0,642508.829,0.923,0.064,-0.047,-0.375,1992,35,115,2053,91,1049,75,556,1,0.000,3,0,0.369,0.039,-0.360,0.020,-0.080,-0.140,-0.078,0.988,-0.038,-0.010,0.018,0.000,0.000,0.000,0.000,1,2,0,1,7,255,1224,300,674,1224
stim,1904,1904,0,642513.829,0.924,0.064,-0.047,-0.375,1995,37,105,2058,91,1053,83,561,1,0.000,3,0,0.773,0.041,0.140,0.020,-0.760,-0.134,-0.083,0.988,-0.038,-0.016,-0.018,0.000,0.000,0.000,0.000,1,2,0,1,7,255,1224,300,679,1224
stim,1922,1922,0,642518.829,0.924,0.064,-0.047,-0.375,1994,30,108,2073,97,1059,77,555,1,0.000,3,0,0.383,0.039,0.260,0.020,-0.280,-0.131,-0.084,0.991,0.036,-0.016,-0.018,0.000,0.000,0.000,0.000,1,2,0,1,7,255,1224,300,684,1224
stim,1922,1922,0,642523.829,0.924,0.064,-0.047,-0.375,1993,29,108,2071,88,1047,77,556,1,0.000,3,0,0.462,0.036,0.020,-0.040,0.460,-0.133,-0.080,0.994,0.036,0.002,0.004,0.000,0.000,0.000,0.000,1,2,0,1,7,255,1224,300,689,1224
stim,1922,1922,0,642528.829,0.924,0.064,-0.047,-0.375,1999,37,107,2067,93,1051,85,559,1,0.000,3,0,0.551,0.024,-0.300,-0.040,0.460,-0.137,-0.078,0.991,0.024,0.002,0.006,0.000,0.000,0.000,0.000,1,2,0,1,7,255,1224,300,694,1224
stim,1922,1922,0,642533.829,0.924,0.064,-0.047,-0.375,2007,35,107,2057,92,1041,79,555,1,0.000,3,0,0.261,0.012,-0.240,-0.100,-0.020,-0.138,-0.080,0.990,-0.012,0.002,0.006,0.000,0.000,0.000,0.000,1,2,0,1,7,255,1224,300,699,1224
stim,1956,1956,0,642538.829,0.924,0.064,-0.047,-0.375,2005,33,110,2059,92,1053,77,552,1,0.000,3,0,0.292,0.014,0.080,0.020,-0.280,-0.135,-0.081,0.988,-0.012,-0.008,0.000,0.000,0.000,0.000,0.000,1,2,0,1,7,255,1224,300,704,1224
stim,1956,1956,0,642543.829,0.924,0.064,-0.047,-0.375,2008,30,107,2075,97,1059,78,557,1,0.000,3,0,0.296,0.016,0.260,0.020,-0.140,-0.134,-0.081,0.992,0.014,-0.008,0.000,0.000,0.000,0.000,0.000,1,2,0,1,7,255,1224,300,709,1224
stim,1957,1957,0,642548.829,0.924,0.064,-0.047,-0.375,1992,33,107,2065,89,1049,74,554,1,0.000,3,0,0.170,0.017,-0.040,-0.040,0.160,-0.135,-0.079,0.994,0.014,0.010,0.012,0.000,0.000,0.000,0.000,1,2,0,1,7,255,1224,300,714,1224
stim,1957,1957,0,642553.829,0.924,0.064,-0.047,-0.375,2010,37,109,2057,93,1051,75,552,1,0.000,3,0,0.328,0.010,-0.240,-0.040,0.220,-0.135,-0.079,0.991,0.002,0.010,0.012,0.000,0.000,0.000,0.000,1,2,0,1,7,255,1224,300,719,1224
stim,1957,1957,0,642558.829,0.924,0.064,-0.047,-0.375,2003,39,107,2060,99,1051,75,557,1,0.000,3,0,0.263,0.010,-0.240,-0.100,0.040,-0.135,-0.080,0.987,0.002,0.010,0.008,0.000,0.000,0.000,0.000,1,2,0,1,7,255,1224,300,724,1224
stim,1957,1957,0,642563.829,0.924,0.064,-0.047,-0.375,2009,31,115,2058,88,1044,82,564,1,0.000,3,0,0.120,0.006,0.080,-0.040,-0.080,-0.136,-0.082,0.989,0.006,-0.002,-0.006,0.000,0.000,0.000,0.000,1,2,0,1,7,255,1224,300,729,1224
stim,1987,1987,0,642568.829,0.924,0.064,-0.047,-0.375,2013,37,107,2056,102,1055,74,559,1,0.000,3,0,0.219,0.010,0.200,-0.040,-0.080,-0.134,-0.081,0.991,0.010,-0.002,-0.006,0.000,0.000,0.000,0.000,1,2,0,1,7,255,1224,300,734,1224
stim,1987,1987,0,642573.829,0.924,0.064,-0.047,-0.375,1995,33,105,2057,97,1053,81,559,1,0.000,3,0,0.110,0.011,0.020,-0.040,0.100,-0.135,-0.079,0.992,0.010,0.004,0.010,0.000,0.000,0.000,0.000,1,2,0,1,7,255,1224,300,739,1224
stim,1987,1987,0,642578.829,0.924,0.064,-0.047,-0.375,2003,35,104,2067,91,1046,75,557,1,0.000,3,0,0.147,0.011,-0.100,-0.040,0.100,-0.135,-0.081,0.990,0.010,0.004,0.010,0.000,0.000,0.000,0.000,1,2,0,1,7,255,1224,300,744,1224
stim,1987,1987,0,642583.829,0.924,0.064,-0.047,-0.375,2011,33,109,2059,97,1053,75,556,1,0.000,3,0,0.147,0.010,-0.100,-0.040,0.100,-0.135,-0.081,0.988,0.010,0.000,0.000,0.000,0.000,0.000,0.000,1,2,0,1,7,255,1224,300,749,1224
stim,1987,1987,0,642588.829,0.924,0.064,-0.047,-0.375,1995,29,109,2071,89,1047,83,553,1,0.000,3,0,0.092,0.010,0.080,0.020,0.040,-0.136,-0.080,0.989,0.010,0.000,-0.014,0.000,0.000,0.000,0.000,1,2,0,1,7,255,1224,300,754,1224
stim,1987,1987,0,642593.829,0.924,0.064,-0.047,-0.375,1992,30,108,2071,91,1049,75,553,1,0.000,3,0,0.147,0.010,0.140,-0.040,-0.020,-0.134,-0.081,0.990,0.010,0.000,-0.014,0.000,0.000,0.000,0.000,1,2,0,1,7,255,1224,300,759,1224
stim,2001,2001,0,642598.829,0.924,0.064,-0.047,-0.375,2009,31,111,2063,101,1051,77,563,1,0.000,3,0,0.049,0.008,0.020,-0.040,-0.020,-0.135,-0.080,0.992,0.006,0.006,0.000,0.000,0.000,0.000,0.000,1,2,0,1,7,255,1224,300,764,1224
stim,2001,2001,0,642603.829,0.924,0.064,-0.047,-0.375,2003,35,109,2058,91,1045,75,563,1,0.000,3,0,0.147,0.008,-0.100,-0.040,0.100,-0.135,-0.080,0.991,0.006,0.006,0.008,0.000,0.000,0.000,0.000,1,2,0,1,7,255,1224,300,769,1224
stim,2001,2001,0,642608.829,0.924,0.064,-0.047,-0.375,2003,31,113,2057,100,1050,75,563,1,0.000,3,0,0.110,0.008,-0.040,0.020,0.100,-0.136,-0.081,0.989,0.006,0.006,0.008,0.000,0.000,0.000,0.000,1,2,0,1,7,255,1224,300,774,1224
stim,2002,2002,0,642613.829,0.924,0.064,-0.047,-0.375,1990,27,108,2054,89,1047,77,550,1,0.000,3,0,0.134,0.002,0.080,-0.040,0.100,-0.136,-0.080,0.991,0.002,0.000,0.006,0.000,0.000,0.000,0.000,1,2,0,1,7,255,1224,300,779,1224
stim,2002,2002,0,642618.829,0.924,0.064,-0.047,-0.375,2011,37,111,2057,89,1046,81,556,1,0.000,3,0,0.035,0.003,0.020,0.020,-0.020,-0.136,-0.080,0.991,0.002,-0.002,0.006,0.000,0.000,0.000,0.000,1,2,0,1,7,255,1224,300,784,1224
stim,2015,2015,0,642623.829,0.924,0.064,-0.047,-0.375,1993,33,108,2053,91,1045,77,553,1,0.000,3,0,0.049,0.002,0.020,0.020,0.040,-0.135,-0.080,0.991,0.002,0.000,0.006,0.000,0.000,0.000,0.000,1,2,0,1,7,255,1224,300,789,1224
stim,2015,2015,0,642628.829,0.924,0.064,-0.047,-0.375,1997,33,111,2075,89,1051,77,552,1,0.000,3,0,0.115,0.006,-0.040,-0.040,0.100,-0.135,-0.081,0.991,0.006,-0.002,0.006,0.000,0.000,0.000,0.000,1,2,0,1,7,255,1224,300,794,1224
stim,2031,2031,0,642633.829,0.924,0.064,-0.047,-0.375,2011,37,111,2059,90,1047,81,559,1,0.000,3,0,0.147,0.006,-0.100,-0.040,0.100,-0.135,-0.080,0.990,0.006,0.002,0.006,0.000,0.000,0.000,0.000,1,2,0,1,7,255,1224,300,799,1224
stim,2031,2031,0,642638.829,0.924,0.064,-0.047,-0.375,2002,29,107,2071,89,1045,81,557,1,0.000,3,0,0.110,0.004,0.020,-0.040,0.100,-0.135,-0.080,0.990,0.004,0.002,0.000,0.000,0.000,0.000,0.000,1,2,0,1,7,255,1224,300,804,1224
stim,2064,2064,0,642643.829,0.924,0.064,-0.047,-0.375,1991,30,109,2072,93,1049,77,552,1,0.000,3,0,0.060,0.004,0.020,-0.040,0.040,-0.136,-0.080,0.990,0.002,0.004,0.000,0.000,0.000,0.000,0.000,1,2,0,1,7,255,1224,300,809,1224
stim,2064,2064,0,642648.829,0.924,0.064,-0.047,-0.375,2001,31,109,2059,92,1048,76,553,1,0.000,3,0,0.060,0.004,0.020,-0.040,0.040,-0.135,-0.081,0.992,0.002,0.004,0.000,0.000,0.000,0.000,0.000,1,2,0,1,7,255,1224,300,814,1224
stim,2064,2064,0,642653.829,0.924,0.064,-0.047,-0.375,2000,27,107,2067,87,1050,77,552,1,0.000,3,0,0.110,0.011,-0.040,0.020,0.100,-0.134,-0.080,0.989,0.010,0.004,0.000,0.000,0.000,0.000,0.000,1,2,0,1,7,255,1224,300,819,1224
stim,2064,2064,0,642658.829,0.924,0.064,-0.047,-0.375,2005,29,108,2063,94,1057,76,560,1,0.000,3,0,0.110,0.011,-0.040,0.020,0.100,-0.136,-0.079,0.990,0.010,0.004,-0.004,0.000,0.000,0.000,0.000,1,2,0,1,7,255,1224,300,824,1224
stim,2079,2079,0,642663.829,0.924,0.064,-0.047,-0.375,2001,35,107,2061,91,1051,75,555,1,0.000,3,0,0.110,0.004,0.020,-0.040,0.100,-0.136,-0.080,0.991,-0.002,0.004,-0.004,0.000,0.000,0.000,0.000,1,2,0,1,7,255,1224,300,829,1224
stim,2079,2079,0,642668.829,0.924,0.064,-0.047,-0.375,1992,28,109,2075,89,1047,81,555,1,0.000,3,0,0.110,0.003,-0.040,0.020,0.100,-0.136,-0.081,0.991,-0.002,-0.002,0.006,0.000,0.000,0.000,0.000,1,2,0,1,7,255,1224,300,834,1224
stim,2079,2079,0,642673.829,0.924,0.064,-0.047,-0.375,2009,39,107,2055,96,1053,76,557,1,0.000,3,0,0.110,0.004,-0.100,0.020,0.040,-0.135,-0.081,0.991,0.004,-0.002,0.006,0.000,0.000,0.000,0.000,1,2,0,1,7,255,1224,300,839,1224
stim,2079,2079,0,642678.829,0.924,0.064,-0.047,-0.375,2009,35,109,2063,90,1061,80,561,1,0.000,3,0,0.049,0.004,0.020,0.020,0.040,-0.135,-0.080,0.989,0.004,-0.002,0.006,0.000,0.000,0.000,0.000,1,2,0,1,7,255,1224,300,844,1224
stim,2079,2079,0,642683.829,0.924,0.064,-0.047,-0.375,1995,35,107,2073,89,1045,75,563,1,0.000,3,0,0.069,0.003,-0.040,-0.040,0.040,-0.135,-0.079,0.990,0.002,0.002,0.000,0.000,0.000,0.000,0.000,1,2,0,1,7,255,1224,300,849,1224
stim,2079,2079,0,642688.829,0.924,0.064,-0.047,-0.375,1981,35,107,2053,89,1047,75,549,1,0.000,3,0,0.104,0.003,0.020,0.020,0.100,-0.135,-0.081,0.990,0.002,0.002,0.000,0.000,0.000,0.000,0.000,1,2,0,1,7,255,1224,300,854,1224
stim,2079,2079,0,642693.829,0.924,0.064,-0.047,-0.375,2012,33,111,2072,93,1053,80,553,1,0.000,3,0,0.060,0.002,-0.040,0.020,0.040,-0.136,-0.080,0.991,0.000,0.002,0.000,0.000,0.000,0.000,0.000,1,2,0,1,7,255,1224,300,859,1224
stim,2096,2096,0,642698.829,0.924,0.064,-0.047,-0.375,1982,30,105,2044,89,1045,75,555,1,0.000,3,0,0.147,0.002,-0.100,-0.040,0.100,-0.135,-0.080,0.991,0.000,0.002,0.004,0.000,0.000,0.000,0.000,1,2,0,1,7,255,1224,300,864,1224
stim,2111,2111,0,642703.830,0.924,0.064,-0.047,-0.375,2011,31,111,2058,92,1047,77,558,1,0.000,3,0,0.060,0.008,-0.040,0.020,0.040,-0.135,-0.080,0.991,0.000,0.008,0.004,0.000,0.000,0.000,0.000,1,2,0,1,7,255,1224,300,869,1224
stim,2111,2111,0,642708.829,0.924,0.064,-0.047,-0.375,1983,27,104,2055,87,1045,77,553,1,0.000,3,0,0.110,0.008,-0.100,0.020,0.040,-0.135,-0.080,0.991,0.000,0.008,0.004,0.000,0.000,0.000,0.000,1,2,0,1,7,255,1224,300,874,1224
stim,2111,2111,0,642713.829,0.924,0.064,-0.047,-0.375,1993,28,109,2063,95,1042,78,563,1,0.000,3,0,0.115,0.010,-0.100,-0.040,0.040,-0.135,-0.081,0.991,0.006,0.008,0.004,0.000,0.000,0.000,0.000,1,2,0,1,7,255,1224,300,879,1224
stim,2111,2111,0,642718.829,0.924,0.064,-0.047,-0.375,1979,33,104,2045,89,1043,77,551,1,0.000,3,0,0.060,0.008,-0.040,0.020,0.040,-0.136,-0.079,0.991,-0.002,0.008,0.004,0.000,0.000,0.000,0.000,1,2,0,1,7,255,1224,300,884,1224
stim,2111,2111,0,642723.829,0.924,0.064,-0.047,-0.375,2003,35,109,2047,97,1043,82,561,1,0.000,3,0,0.110,0.003,-0.100,-0.040,-0.020,-0.136,-0.081,0.990,0.002,0.002,0.004,0.000,0.000,0.000,0.000,1,2,0,1,7,255,1224,300,889,1224
stim,2128,2128,0,642728.829,0.924,0.064,-0.047,-0.375,1989,29,107,2057,89,1051,76,557,1,0.000,3,0,0.143,0.006,-0.100,-0.100,-0.020,-0.135,-0.080,0.991,0.002,0.006,0.004,0.000,0.000,0.000,0.000,1,2,0,1,7,255,1224,300,894,1224
stim,2128,2128,0,642733.829,0.924,0.064,-0.047,-0.375,2005,28,107,2067,92,1048,79,563,1,0.000,3,0,0.177,0.006,-0.100,-0.040,-0.140,-0.135,-0.080,0.991,0.002,0.006,0.004,0.000,0.000,0.000,0.000,1,2,0,1,7,255,1224,300,899,1224
stim,2129,2129,0,642738.829,0.924,0.064,-0.047,-0.375,1990,29,111,2067,87,1048,81,556,1,0.000,3,0,0.134,0.006,-0.100,-0.040,-0.080,-0.136,-0.080,0.990,0.000,0.006,0.004,0.000,0.000,0.000,0.000,1,2,0,1,7,255,1224,300,904,1224
stim,2129,2129,0,642743.829,0.924,0.064,-0.047,-0.375,2001,37,115,2063,91,1047,77,556,1,0.000,3,0,0.134,0.008,-0.100,-0.040,-0.080,-0.135,-0.080,0.990,0.000,0.008,0.000,0.000,0.000,0.000,0.000,1,2,0,1,7,255,1224,300,909,1224
stim,2160,2160,0,642748.829,0.924,0.064,-0.047,-0.375,1991,28,105,2065,91,1054,83,559,1,0.000,3,0,0.162,0.003,-0.160,0.020,-0.020,-0.136,-0.080,0.991,-0.002,0.002,0.000,0.000,0.000,0.000,0.000,1,2,0,1,7,255,1224,300,914,1224
stim,2160,2160,0,642753.829,0.924,0.064,-0.047,-0.375,2006,31,109,2066,88,1049,83,557,1,0.000,3,0,0.214,0.008,-0.160,0.020,-0.140,-0.135,-0.080,0.991,-0.002,0.008,0.004,0.000,0.000,0.000,0.000,1,2,0,1,7,255,1224,300,919,1224
stim,2160,2160,0,642758.829,0.924,0.064,-0.047,-0.375,2003,31,114,2069,90,1047,75,557,1,0.000,3,0,0.222,0.003,-0.220,0.020,-0.020,-0.135,-0.081,0.990,-0.002,0.002,0.004,0.000,0.000,0.000,0.000,1,2,0,1,7,255,1224,300,924,1224
stim,2160,2160,0,642763.829,0.924,0.064,-0.047,-0.375,2008,36,107,2056,92,1047,79,556,1,0.000,3,0,0.166,0.010,-0.160,-0.040,-0.020,-0.135,-0.081,0.991,0.008,0.006,0.004,0.000,0.000,0.000,0.000,1,2,0,1,7,255,1224,300,929,1224
stim,2160,2160,0,642768.829,0.924,0.064,-0.047,-0.375,1997,37,109,2071,92,1051,77,557,1,0.000,3,0,0.162,0.009,-0.160,0.020,-0.020,-0.135,-0.081,0.990,0.008,0.004,0.000,0.000,0.000,0.000,0.000,1,2,0,1,7,255,1224,300,934,1224
stim,2160,2160,0,642773.829,0.924,0.064,-0.046,-0.375,1998,36,109,2069,87,1048,75,557,1,0.000,3,0,0.104,0.010,-0.100,0.020,-0.020,-0.135,-0.080,0.989,0.008,0.006,-0.006,0.000,0.000,0.000,0.000,1,2,0,1,7,255,1224,300,939,1224
stim,2175,2175,0,642778.829,0.924,0.064,-0.046,-0.375,1984,29,108,2069,93,1049,82,561,1,0.000,3,0,0.092,0.006,-0.040,0.020,-0.080,-0.136,-0.080,0.992,-0.004,0.004,-0.006,0.000,0.000,0.000,0.000,1,2,0,1,7,255,1224,300,944,1224
stim,2175,2175,0,642783.829,0.924,0.064,-0.046,-0.375,1991,28,107,2067,91,1043,75,553,1,0.000,3,0,0.130,0.008,-0.100,0.020,-0.080,-0.136,-0.079,0.991,-0.006,0.006,0.004,0.000,0.000,0.000,0.000,1,2,0,1,7,255,1224,300,949,1224
stim,2192,2192,0,642788.829,0.924,0.064,-0.046,-0.375,2004,35,105,2066,95,1055,72,553,1,0.000,3,0,0.147,0.012,-0.040,0.020,-0.140,-0.136,-0.079,0.990,-0.010,0.006,0.004,0.000,0.000,0.000,0.000,1,2,0,1,7,255,1224,300,954,1224
stim,2192,2192,0,642793.829,0.924,0.064,-0.046,-0.375,1989,27,104,2057,93,1062,84,555,1,0.000,3,0,0.130,0.013,-0.100,0.080,-0.020,-0.137,-0.080,0.991,-0.012,0.006,0.004,0.000,0.000,0.000,0.000,1,2,0,1,7,255,1224,300,959,1224
stim,2192,2192,0,642798.829,0.924,0.064,-0.046,-0.375,1991,37,113,2072,89,1047,75,554,1,0.000,3,0,0.180,0.013,-0.160,0.020,-0.080,-0.135,-0.080,0.991,-0.010,0.008,0.004,0.000,0.000,0.000,0.000,1,2,0,1,7,255,1224,300,964,1224
stim,2192,2192,0,642803.829,0.924,0.064,-0.046,-0.375,2003,37,109,2057,92,1045,75,557,1,0.000,3,0,0.180,0.010,-0.160,0.020,-0.080,-0.135,-0.080,0.991,-0.002,0.010,0.004,0.000,0.000,0.000,0.000,1,2,0,1,7,255,1224,300,969,1224
stim,2208,2208,0,642808.829,0.924,0.064,-0.046,-0.375,1991,39,109,2047,96,1049,79,557,1,0.000,3,0,0.151,0.010,-0.100,0.080,-0.080,-0.135,-0.080,0.991,-0.002,0.010,0.004,0.000,0.000,0.000,0.000,1,2,0,1,7,255,1224,300,974,1224
stim,2208,2208,0,642813.829,0.924,0.064,-0.046,-0.375,2004,37,109,2072,95,1052,77,555,1,0.000,3,0,0.214,0.011,-0.160,0.020,-0.140,-0.136,-0.080,0.990,-0.004,0.010,0.004,0.000,0.000,0.000,0.000,1,2,0,1,7,255,1224,300,979,1224
stim,2224,2224,0,642818.829,0.924,0.064,-0.046,-0.375,1993,29,107,2067,93,1050,75,558,1,0.000,3,0,0.151,0.006,-0.100,0.080,-0.080,-0.136,-0.080,0.990,-0.004,0.004,-0.004,0.000,0.000,0.000,0.000,1,2,0,1,7,255,1224,300,984,1224
stim,2224,2224,0,642823.829,0.924,0.064,-0.046,-0.375,2005,31,114,2063,92,1053,75,558,1,0.000,3,0,0.130,0.006,-0.100,0.020,-0.080,-0.134,-0.080,0.990,-0.004,0.004,-0.006,0.000,0.000,0.000,0.000,1,2,0,1,7,255,1224,300,989,1224
stim,2224,2224,0,642828.829,0.924,0.064,-0.046,-0.375,1983,29,105,2053,91,1045,75,551,1,0.000,3,0,0.180,0.010,-0.160,0.020,-0.080,-0.134,-0.081,0.990,0.006,0.008,-0.004,0.000,0.000,0.000,0.000,1,2,0,1,7,255,1224,300,994,1224
stim,2224,2224,0,642833.829,0.924,0.064,-0.046,-0.375,1993,28,107,2063,88,1047,77,557,1,0.000,3,0,0.166,0.010,-0.160,0.020,0.040,-0.135,-0.080,0.990,0.006,0.008,-0.002,0.000,0.000,0.000,0.000,1,2,0,1,7,255,1224,300,999,1224
stim,2255,2255,0,642838.829,0.924,0.064,-0.046,-0.375,1999,29,105,2060,91,1053,76,557,1,0.000,3,0,0.180,0.008,-0.160,0.080,-0.020,-0.136,-0.081,0.990,0.002,0.008,-0.002,0.000,0.000,0.000,0.000,1,2,0,1,7,255,1224,300,1004,1224
stim,2255,2255,0,642843.829,0.924,0.064,-0.046,-0.375,1994,37,109,2073,91,1047,81,552,1,0.000,3,0,0.104,0.002,-0.100,0.020,-0.020,-0.136,-0.080,0.989,0.002,0.000,-0.002,0.000,0.000,0.000,0.000,1,2,0,1,7,255,1224,300,1009,1224
stim,2255,2255,0,642848.829,0.924,0.064,-0.046,-0.375,1995,28,111,2073,93,1051,87,555,1,0.000,3,0,0.110,0.004,-0.100,0.020,0.040,-0.137,-0.082,0.989,0.002,-0.004,-0.010,0.000,0.000,0.000,0.000,1,2,0,1,7,255,1224,300,1014,1224
stim,2255,2255,0,642853.829,0.924,0.064,-0.046,-0.375,1997,35,110,2066,89,1049,83,555,1,0.000,3,0,0.110,0.002,-0.100,0.020,0.040,-0.135,-0.081,0.990,0.002,0.000,-0.010,0.000,0.000,0.000,0.000,1,2,0,1,7,255,1224,300,1019,1224
stim,2271,2271,0,642858.829,0.924,0.064,-0.046,-0.375,2011,31,111,2058,93,1051,76,557,1,0.000,3,0,0.060,0.006,-0.040,0.020,0.040,-0.136,-0.081,0.991,0.002,-0.006,0.000,0.000,0.000,0.000,0.000,1,2,0,1,7,255,1224,300,1024,1224
stim,2271,2271,0,642863.829,0.924,0.064,-0.046,-0.375,1991,37,111,2073,93,1045,75,557,1,0.000,3,0,0.069,0.003,-0.040,-0.040,0.040,-0.134,-0.080,0.989,0.002,0.002,0.000,0.000,0.000,0.000,0.000,1,2,0,1,7,255,1224,300,1029,1224
stim,2288,2288,0,642868.829,0.924,0.064,-0.046,-0.375,1991,35,105,2055,95,1059,78,557,1,0.000,3,0,0.035,0.007,0.020,0.020,-0.020,-0.134,-0.081,0.991,0.004,0.006,0.004,0.000,0.000,0.000,0.000,1,2,0,1,7,255,1224,300,1034,1224
stim,2288,2288,0,642873.829,0.924,0.064,-0.046,-0.375,1993,28,107,2065,90,1052,83,555,1,0.000,3,0,0.049,0.007,0.020,-0.040,-0.020,-0.136,-0.080,0.990,0.004,0.006,0.000,0.000,0.000,0.000,0.000,1,2,0,1,7,255,1224,300,1039,1224
stim,2288,2288,0,642878.829,0.924,0.064,-0.046,-0.375,1997,34,107,2058,95,1046,83,557,1,0.000,3,0,0.049,0.003,0.020,0.020,0.040,-0.135,-0.081,0.990,0.002,0.002,0.000,0.000,0.000,0.000,0.000,1,2,0,1,7,255,1224,300,1044,1224
stim,2288,2288,0,642883.829,0.924,0.064,-0.046,-0.375,1997,35,105,2060,93,1052,77,562,1,0.000,3,0,0.110,0.003,-0.040,0.020,0.100,-0.135,-0.081,0.990,0.002,0.002,0.000,0.000,0.000,0.000,0.000,1,2,0,1,7,255,1224,300,1049,1224
stim,2288,2288,0,642888.829,0.924,0.064,-0.046,-0.375,1990,31,105,2067,97,1050,80,553,1,0.000,3,0,0.134,0.004,-0.040,0.080,0.100,-0.135,-0.081,0.990,0.004,0.002,-0.004,0.000,0.000,0.000,0.000,1,2,0,1,7,255,1224,300,1054,1224
stim,2288,2288,0,642893.829,0.924,0.064,-0.046,-0.375,1992,31,108,2059,93,1047,80,559,1,0.000,3,0,0.104,0.007,0.020,0.020,0.100,-0.134,-0.081,0.991,0.004,0.006,0.000,0.000,0.000,0.000,0.000,1,2,0,1,7,255,1224,300,1059,1224
stim,2309,2309,0,642898.829,0.924,0.064,-0.046,-0.375,2013,37,111,2063,96,1050,81,555,1,0.000,3,0,0.092,0.011,0.080,0.020,0.040,-0.135,-0.080,0.991,0.004,0.010,0.004,0.000,0.000,0.000,0.000,1,2,0,1,7,255,1224,300,1064,1224
stim,2309,2309,0,642903.830,0.924,0.064,-0.046,-0.375,2023,37,107,2071,92,1045,77,557,1,0.000,3,0,0.092,0.012,0.080,0.020,0.040,-0.135,-0.080,0.990,-0.006,0.010,0.004,0.000,0.000,0.000,0.000,1,2,0,1,7,255,1224,300,1069,1224
stim,2309,2309,0,642908.829,0.924,0.064,-0.046,-0.375,2002,28,109,2055,95,1049,75,554,1,0.000,3,0,0.143,0.012,0.140,0.020,-0.020,-0.135,-0.080,0.990,-0.006,0.010,0.000,0.000,0.000,0.000,0.000,1,2,0,1,7,255,1224,300,1074,1224
stim,2309,2309,0,642913.829,0.924,0.064,-0.046,-0.375,2013,31,113,2063,93,1048,76,553,1,0.000,3,0,0.035,0.010,0.020,0.020,-0.020,-0.136,-0.080,0.991,-0.006,0.008,0.000,0.000,0.000,0.000,0.000,1,2,0,1,7,255,1224,300,1079,1224
stim,2320,2320,0,642918.829,0.924,0.064,-0.046,-0.375,1991,30,106,2056,89,1045,76,553,1,0.000,3,0,0.035,0.007,0.020,0.020,-0.020,-0.135,-0.081,0.990,-0.004,0.006,0.000,0.000,0.000,0.000,0.000,1,2,0,1,7,255,1224,300,1084,1224
stim,2320,2320,0,642923.829,0.924,0.064,-0.046,-0.375,2003,33,111,2058,93,1046,75,557,1,0.000,3,0,0.035,0.007,0.020,0.020,-0.020,-0.135,-0.080,0.990,-0.004,0.006,0.000,0.000,0.000,0.000,0.000,1,2,0,1,7,255,1224,300,1089,1224
stim,2335,2335,0,642928.829,0.924,0.064,-0.046,-0.375,1995,30,103,2065,96,1048,76,557,1,0.000,3,0,0.049,0.007,0.020,0.020,0.040,-0.135,-0.080,0.991,-0.004,0.006,0.000,0.000,0.000,0.000,0.000,1,2,0,1,7,255,1224,300,1094,1224
stim,2335,2335,0,642933.829,0.924,0.064,-0.046,-0.375,1991,33,105,2057,91,1045,76,551,1,0.000,3,0,0.049,0.007,0.020,0.020,0.040,-0.136,-0.080,0.990,-0.004,0.006,-0.004,0.000,0.000,0.000,0.000,1,2,0,1,7,255,1224,300,1099,1224
stim,2368,2368,0,642938.829,0.924,0.064,-0.046,-0.375,2013,30,109,2063,99,1048,82,557,1,0.000,3,0,0.092,0.013,0.020,0.080,0.040,-0.135,-0.080,0.990,-0.004,0.012,-0.004,0.000,0.000,0.000,0.000,1,2,0,1,7,255,1224,300,1104,1224
stim,2368,2368,0,642943.829,0.924,0.064,-0.046,-0.375,1997,39,108,2063,100,1059,77,557,1,0.000,3,0,0.049,0.011,0.020,0.020,0.040,-0.135,-0.080,0.989,-0.008,0.008,-0.006,0.000,0.000,0.000,0.000,1,2,0,1,7,255,1224,300,1109,1224
stim,2368,2368,0,642948.829,0.924,0.064,-0.046,-0.375,2009,33,109,2058,91,1058,81,559,1,0.000,3,0,0.060,0.013,0.020,-0.040,0.040,-0.135,-0.079,0.990,-0.006,0.012,-0.006,0.000,0.000,0.000,0.000,1,2,0,1,7,255,1224,300,1114,1224
stim,2368,2368,0,642953.830,0.924,0.064,-0.046,-0.375,1994,29,111,2058,93,1047,77,553,1,0.000,3,0,0.110,0.010,-0.040,0.020,0.100,-0.135,-0.080,0.990,-0.006,0.008,-0.006,0.000,0.000,0.000,0.000,1,2,0,1,7,255,1224,300,1119,1224
stim,2368,2368,0,642958.829,0.924,0.064,-0.046,-0.375,2009,31,110,2071,93,1050,83,555,1,0.000,3,0,0.049,0.013,0.020,0.020,0.040,-0.135,-0.079,0.990,-0.006,0.012,-0.004,0.000,0.000,0.000,0.000,1,2,0,1,7,255,1224,300,1124,1224
stim,2368,2368,0,642963.829,0.924,0.064,-0.046,-0.375,2007,37,109,2067,91,1051,74,557,1,0.000,3,0,0.060,0.012,-0.040,0.020,0.040,-0.136,-0.080,0.990,-0.010,0.006,0.000,0.000,0.000,0.000,0.000,1,2,0,1,7,255,1224,300,1129,1224
stim,2388,2388,0,642968.829,0.924,0.064,-0.046,-0.375,2003,29,112,2067,92,1049,75,553,1,0.000,3,0,0.060,0.012,-0.040,0.020,0.040,-0.135,-0.080,0.991,-0.010,0.006,0.000,0.000,0.000,0.000,0.000,1,2,0,1,7,255,1224,300,1134,1224
stim,2388,2388,0,642973.829,0.924,0.064,-0.046,-0.375,1995,28,107,2071,97,1047,76,561,1,0.000,3,0,0.092,0.008,-0.040,0.020,-0.080,-0.135,-0.080,0.990,-0.006,0.006,0.000,0.000,0.000,0.000,0.000,1,2,0,1,7,255,1224,300,1139,1224
stim,2388,2388,0,642978.829,0.924,0.064,-0.046,-0.375,2005,35,113,2065,93,1046,77,555,1,0.000,3,0,0.104,0.008,-0.100,0.020,-0.020,-0.136,-0.081,0.990,-0.006,0.006,0.002,0.000,0.000,0.000,0.000,1,2,0,1,7,255,1224,300,1144,1224
stim,2388,2388,0,642983.829,0.924,0.064,-0.046,-0.375,2003,33,105,2085,93,1044,83,555,1,0.000,3,0,0.104,0.006,-0.100,0.020,-0.020,-0.136,-0.081,0.990,-0.006,-0.002,-0.004,0.000,0.000,0.000,0.000,1,2,0,1,7,255,1224,300,1149,1224
stim,2388,2388,0,642988.829,0.924,0.064,-0.046,-0.375,2006,33,111,2069,94,1044,69,559,1,0.000,3,0,0.104,0.006,-0.100,0.020,-0.020,-0.135,-0.080,0.990,-0.006,-0.002,0.000,0.000,0.000,0.000,0.000,1,2,0,1,7,255,1224,300,1154,1224
stim,2388,2388,0,642993.829,0.924,0.064,-0.046,-0.375,1997,33,110,2073,92,1051,77,559,1,0.000,3,0,0.130,0.006,-0.100,0.020,-0.080,-0.136,-0.080,0.990,-0.006,0.002,-0.004,0.000,0.000,0.000,0.000,1,2,0,1,7,255,1224,300,1159,1224
stim,2400,2400,0,642998.829,0.924,0.064,-0.046,-0.375,2011,36,113,2071,95,1046,79,561,1,0.000,3,0,0.162,0.010,-0.160,0.020,-0.020,-0.136,-0.079,0.992,-0.006,0.008,0.000,0.000,0.000,0.000,0.000,1,2,0,1,7,255,1224,300,1164,1224
stim,2400,2400,0,643003.829,0.924,0.064,-0.046,-0.375,2002,31,107,2077,99,1049,85,555,1,0.000,3,0,0.166,0.006,-0.160,-0.040,-0.020,-0.135,-0.081,0.990,-0.006,0.002,0.000,0.000,0.000,0.000,0.000,1,2,0,1,7,255,1224,300,1169,1224
stim,2401,2401,0,643008.829,0.924,0.064,-0.046,-0.375,2005,35,110,2071,89,1049,81,551,1,0.000,3,0,0.104,0.006,-0.100,0.020,-0.020,-0.135,-0.080,0.990,-0.004,0.004,0.000,0.000,0.000,0.000,0.000,1,2,0,1,7,255,1224,300,1174,1224
stim,2401,2401,0,643013.829,0.924,0.064,-0.046,-0.375,1992,34,111,2073,91,1047,81,552,1,0.000,3,0,0.104,0.002,-0.100,0.020,-0.020,-0.135,-0.081,0.990,0.000,0.002,0.000,0.000,0.000,0.000,0.000,1,2,0,1,7,255,1224,300,1179,1224
stim,2421,2421,0,643018.829,0.924,0.064,-0.046,-0.375,1997,31,111,2083,97,1049,83,554,1,0.000,3,0,0.134,0.002,-0.100,-0.040,-0.080,-0.136,-0.082,0.989,0.000,0.002,-0.004,0.000,0.000,0.000,0.000,1,2,0,1,7,255,1224,300,1184,1224
stim,2421,2421,0,643023.829,0.924,0.064,-0.046,-0.375,2007,30,119,2071,95,1049,76,554,1,0.000,3,0,0.104,0.002,-0.100,0.020,-0.020,-0.136,-0.081,0.990,0.000,-0.002,-0.004,0.000,0.000,0.000,0.000,1,2,0,1,7,255,1224,300,1189,1224
stim,2422,2422,0,643028.829,0.924,0.064,-0.046,-0.375,2009,27,109,2067,97,1051,79,553,1,0.000,3,0,0.130,0.004,-0.100,0.020,-0.080,-0.136,-0.080,0.990,-0.004,-0.002,-0.004,0.000,0.000,0.000,0.000,1,2,0,1,7,255,1224,300,1194,1224
stim,2422,2422,0,643033.829,0.924,0.064,-0.046,-0.375,2005,33,115,2075,90,1047,77,554,1,0.000,3,0,0.098,0.006,-0.040,-0.040,-0.080,-0.136,-0.080,0.990,-0.006,0.002,-0.004,0.000,0.000,0.000,0.000,1,2,0,1,7,255,1224,300,1199,1224
stim,2464,2464,0,643038.829,0.924,0.065,-0.046,-0.375,1991,29,107,2057,91,1047,76,552,1,0.000,3,0,0.104,0.006,-0.100,0.020,-0.020,-0.135,-0.080,0.991,-0.006,0.002,0.000,0.000,0.000,0.000,0.000,1,2,0,1,7,255,1224,300,1204,1224
stim,2464,2464,0,643043.829,0.924,0.065,-0.046,-0.375,2005,39,115,2058,93,1046,78,557,1,0.000,3,0,0.166,0.010,-0.160,-0.040,-0.020,-0.135,-0.080,0.991,0.000,0.010,0.004,0.000,0.000,0.000,0.000,1,2,0,1,7,255,1224,300,1209,1224
stim,2464,2464,0,643048.829,0.924,0.065,-0.046,-0.375,2001,33,115,2065,91,1063,83,553,1,0.000,3,0,0.134,0.010,-0.040,-0.100,-0.080,-0.135,-0.081,0.991,0.000,0.010,0.004,0.000,0.000,0.000,0.000,1,2,0,1,7,255,1224,300,1214,1224
stim,2464,2464,0,643053.830,0.924,0.064,-0.046,-0.375,1996,35,109,2072,94,1047,74,555,1,0.000,3,0,0.060,0.008,-0.040,-0.040,-0.020,-0.136,-0.079,0.989,0.000,0.008,0.004,0.000,0.000,0.000,0.000,1,2,0,1,7,255,1224,300,1219,1224
stim,2464,2464,1,643058.829,0.924,0.064,-0.046,-0.375,2007,37,113,2061,92,1050,85,562,1,0.000,3,0,0.166,0.011,-0.160,-0.040,-0.020,-0.135,-0.080,0.990,-0.008,0.008,-0.006,0.000,0.000,0.000,0.000,1,2,1,1,7,255,1224,300,0,1224
stim,2464,2464,1,643063.829,0.924,0.065,-0.046,-0.375,1998,35,109,2071,93,1053,79,561,1,0.000,3,0,0.110,0.011,-0.100,-0.040,-0.020,-0.135,-0.081,0.990,-0.008,0.008,-0.006,0.000,0.000,0.000,0.000,1,2,1,1,7,255,1224,300,5,1224
stim,2479,2479,1,643068.829,0.924,0.065,-0.046,-0.375,1997,27,105,2063,91,1051,75,553,1,0.000,3,0,0.166,0.010,-0.160,-0.040,-0.020,-0.136,-0.080,0.990,-0.008,0.006,0.000,0.000,0.000,0.000,0.000,1,2,1,1,7,255,1224,300,10,1224
stim,2479,2479,1,643073.829,0.924,0.065,-0.046,-0.375,2009,30,105,2071,90,1053,78,561,1,0.000,3,0,0.162,0.009,-0.160,0.020,-0.020,-0.136,-0.080,0.989,-0.008,0.004,0.000,0.000,0.000,0.000,0.000,1,2,1,1,7,255,1224,300,15,1224
stim,2479,2479,1,643078.829,0.924,0.065,-0.046,-0.375,1997,28,113,2067,99,1052,83,557,1,0.000,3,0,0.134,0.009,-0.100,0.080,0.040,-0.134,-0.081,0.990,-0.008,0.004,-0.002,0.000,0.000,0.000,0.000,1,2,1,1,7,255,1224,300,20,1224
stim,2479,2479,1,643083.829,0.924,0.065,-0.046,-0.375,1993,30,107,2054,93,1045,76,553,1,0.000,3,0,0.060,0.008,-0.040,0.020,0.040,-0.135,-0.080,0.990,0.000,0.008,-0.006,0.000,0.000,0.000,0.000,1,2,1,1,7,255,1224,300,25,1224
stim,2479,2479,1,643088.829,0.924,0.065,-0.046,-0.375,1997,39,106,2059,97,1051,77,553,1,0.000,3,0,0.166,0.008,-0.040,0.020,0.160,-0.135,-0.081,0.992,0.002,0.008,-0.002,0.000,0.000,0.000,0.000,1,2,1,1,7,255,1224,300,30,1224
stim,2479,2479,1,643093.829,0.924,0.065,-0.046,-0.375,1995,31,106,2067,91,1045,79,551,1,0.000,3,0,0.273,0.002,-0.220,0.020,0.160,-0.138,-0.082,0.990,0.000,0.002,0.000,0.000,0.000,0.000,0.000,1,2,1,1,7,255,1224,300,35,1224
stim,2479,2479,1,643098.829,0.924,0.065,-0.046,-0.375,2019,35,105,2055,89,1045,75,553,1,0.000,3,0,0.227,0.016,-0.160,0.080,-0.140,-0.136,-0.083,0.988,0.002,-0.016,0.000,0.000,0.000,0.000,0.000,1,2,1,1,7,255,1224,300,40,1224
stim,2495,2495,1,643103.830,0.924,0.065,-0.046,-0.375,1995,33,105,2058,91,1044,75,555,1,0.000,3,0,0.616,0.018,0.320,0.080,-0.520,-0.134,-0.077,0.988,-0.008,-0.016,-0.016,0.000,0.000,0.000,0.000,1,2,1,1,7,255,1224,300,45,1224
stim,2495,2495,1,643108.829,0.924,0.064,-0.046,-0.375,2001,33,108,2071,91,1053,75,557,1,0.000,3,0,0.520,0.037,0.380,-0.100,0.340,-0.132,-0.079,0.993,0.008,0.036,-0.016,0.000,0.000,0.000,0.000,1,2,1,1,7,255,1224,300,50,1224
stim,2511,2511,1,643113.829,0.924,0.065,-0.046,-0.375,2007,35,109,2067,100,1050,77,552,1,0.000,3,0,1.236,0.037,-0.840,-0.220,0.880,-0.133,-0.093,0.993,0.008,0.036,0.024,0.000,0.000,0.000,0.000,1,2,1,1,7,255,1224,300,55,1224
stim,2511,2511,1,643118.829,0.924,0.064,-0.046,-0.375,1992,33,111,2065,99,1045,77,555,1,0.000,3,0,0.368,0.016,-0.300,0.140,0.160,-0.146,-0.071,0.982,0.008,-0.014,0.024,0.000,0.000,0.000,0.000,1,2,1,1,7,255,1224,300,60,1224
stim,2527,2527,1,643123.829,0.924,0.064,-0.046,-0.375,1997,27,109,2067,97,1055,76,555,1,0.000,3,0,1.000,0.095,0.680,-0.220,-0.700,-0.138,-0.069,0.991,-0.094,-0.014,0.000,0.000,0.000,0.000,0.000,1,2,1,1,7,255,1224,300,65,1224
stim,2527,2527,1,643128.829,0.924,0.064,-0.046,-0.375,2005,27,107,2063,101,1052,77,555,1,0.000,3,0,0.984,0.095,0.440,0.320,-0.820,-0.125,-0.097,0.995,-0.094,-0.014,0.000,0.000,0.000,0.000,0.000,1,2,1,1,7,255,1224,300,70,1224
stim,2527,2527,1,643133.829,0.924,0.064,-0.046,-0.375,1994,36,105,2063,101,1050,80,557,1,0.000,3,0,1.847,0.060,-1.200,-0.480,1.320,-0.138,-0.075,0.987,-0.058,0.016,0.000,0.000,0.000,0.000,0.000,1,2,1,1,7,255,1224,300,75,1224
stim,2527,2527,1,643138.829,0.924,0.064,-0.046,-0.375,1997,28,112,2063,104,1054,83,556,1,0.000,3,0,1.006,0.024,0.940,0.320,0.160,-0.132,-0.080,0.991,0.018,0.016,0.000,0.000,0.000,0.000,0.000,1,2,1,1,7,255,1224,300,80,1224
stim,2559,2559,1,643143.829,0.924,0.065,-0.046,-0.375,1995,30,110,2063,93,1050,78,555,1,0.000,3,0,1.811,0.060,-1.700,-0.480,0.400,-0.149,-0.077,0.983,-0.058,0.016,-0.028,0.000,0.000,0.000,0.000,1,2,1,1,7,255,1224,300,85,1224
stim,2559,2559,1,643148.829,0.924,0.064,-0.046,-0.375,1997,37,107,2057,95,1047,76,552,1,0.000,3,0,2.943,0.032,2.580,0.560,-1.300,-0.128,-0.079,0.997,0.018,0.026,0.000,0.000,0.000,0.000,0.000,1,2,1,1,7,255,1224,300,90,1224
stim,2559,2559,1,643153.830,0.924,0.064,-0.046,-0.375,1997,33,105,2067,97,1049,75,556,1,0.000,3,0,2.088,0.053,-1.940,-0.720,0.280,-0.129,-0.091,0.991,0.046,-0.026,0.006,0.000,0.000,0.000,0.000,1,2,1,1,7,255,1224,300,95,1224
stim,2559,2559,1,643158.829,0.924,0.064,-0.046,-0.375,1994,37,111,2063,93,1059,81,553,1,0.000,3,0,0.815,0.048,0.260,0.620,0.460,-0.143,-0.071,0.984,0.046,0.012,0.006,0.000,0.000,0.000,0.000,1,2,1,1,7,255,1224,300,100,1224
stim,2559,2559,1,643163.829,0.924,0.064,-0.046,-0.375,1993,35,104,2067,103,1049,77,555,1,0.000,3,0,1.584,0.077,1.240,-0.960,0.220,-0.130,-0.085,1.000,0.076,0.012,0.006,0.000,0.000,0.000,0.000,1,2,1,1,7,255,1224,300,105,1224
stim,2559,2559,1,643168.829,0.924,0.065,-0.046,-0.375,1997,27,106,2066,92,1047,83,553,1,0.000,3,0,1.886,0.061,-1.700,0.800,0.160,-0.141,-0.078,0.982,-0.060,0.012,-0.054,0.000,0.000,0.000,0.000,1,2,1,1,7,255,1224,300,110,1224
stim,2592,2592,1,643173.829,0.924,0.064,-0.046,-0.375,1997,29,108,2057,91,1053,77,551,1,0.000,3,0,0.718,0.002,0.200,-0.600,-0.340,-0.136,-0.081,0.991,-0.002,0.000,0.012,0.000,0.000,0.000,0.000,1,2,1,1,7,255,1224,300,115,1224
stim,2592,2592,1,643178.829,0.924,0.064,-0.046,-0.375,2003,28,107,2059,101,1048,77,553,1,0.000,3,0,1.217,0.026,1.180,0.200,-0.220,-0.135,-0.086,0.989,-0.002,-0.026,-0.010,0.000,0.000,0.000,0.000,1,2,1,1,7,255,1224,300,120,1224
stim,2592,2592,1,643183.829,0.924,0.064,-0.046,-0.375,1995,29,107,2067,91,1057,81,556,1,0.000,3,0,0.328,0.008,-0.240,-0.040,0.220,-0.134,-0.080,0.998,0.008,0.000,0.012,0.000,0.000,0.000,0.000,1,2,1,1,7,255,1224,300,125,1224
stim,2592,2592,1,643188.829,0.924,0.064,-0.046,-0.375,1993,37,107,2063,101,1051,77,553,1,0.000,3,0,0.698,0.023,-0.600,-0.220,0.280,-0.136,-0.074,0.986,0.008,0.022,-0.010,0.000,0.000,0.000,0.000,1,2,1,1,7,255,1224,300,130,1224
stim,2592,2592,1,643193.829,0.924,0.064,-0.046,-0.375,1989,29,105,2056,101,1050,79,552,1,0.000,3,0,0.390,0.023,0.200,0.320,0.100,-0.135,-0.080,0.988,-0.006,0.022,-0.024,0.000,0.000,0.000,0.000,1,2,1,1,7,255,1224,300,135,1224
