condition_phase,condition_phase_elapsed_ms,condition_elapsed_ms,is_stimulation_on,t_ms,L_q0,L_q1,L_q2,L_q3,L_heel1,L_mid1,L_fore1,L_heel2,L_fore3,L_mid2,L_fore4,L_fore2,L_cadence,L_speed,L_steps,L_zupt,L_gyroNorm,L_accH,L_gyro_x,L_gyro_y,L_gyro_z,L_acc_x,L_acc_y,L_acc_z,L_nav_ax,L_nav_ay,L_nav_az,L_stepVel,L_stepVelj,L_stepDispRaw,L_stepDispZUPT,L_gaitEvent,L_motorMode,L_motorActive,L_motorAlignment,L_motorRegionMask,L_motorAmplitude,L_motorIntervalMs,L_motorDurationMs,L_motorPhaseMs,L_motorCycleMs
stim,15,15,0,742663.829,0.983,0.057,-0.065,-0.161,2314,0,153,2441,272,873,35,573,1,0.000,3,0,0.489,0.048,0.040,-0.160,-0.460,-0.168,-0.111,0.997,0.014,0.046,-0.016,0.000,0.000,0.000,0.000,1,2,0,2,7,255,1020,200,0,0
stim,15,15,0,742668.829,0.983,0.057,-0.065,-0.161,2295,0,155,2427,227,868,28,570,1,0.000,3,0,2.083,0.087,-0.520,-0.780,-1.860,-0.148,-0.098,0.992,0.014,-0.086,0.052,0.000,0.000,0.000,0.000,1,2,0,2,7,255,1020,200,0,0
stim,31,31,0,742673.829,0.983,0.056,-0.065,-0.161,2311,0,157,2451,304,875,29,583,1,0.000,3,0,0.832,0.093,-0.140,0.020,0.820,-0.131,-0.067,0.973,0.036,-0.086,0.052,0.000,0.000,0.000,0.000,1,2,0,2,7,255,1020,200,0,1020
stim,31,31,0,742678.829,0.983,0.056,-0.065,-0.161,2312,0,157,2443,287,877,33,573,1,0.000,3,0,1.456,0.047,0.940,0.680,0.880,-0.155,-0.088,0.987,0.036,-0.030,0.002,0.000,0.000,0.000,0.000,1,2,0,2,7,255,1020,200,0,1020
stim,31,31,0,742683.829,0.983,0.056,-0.065,-0.161,2295,0,156,2407,203,880,33,576,1,0.000,3,0,1.399,0.078,0.100,-0.600,-1.260,-0.145,-0.099,1.003,0.072,-0.030,0.002,0.000,0.000,0.000,0.000,1,2,0,2,7,255,1020,200,0,1020
stim,31,31,0,742688.829,0.983,0.056,-0.065,-0.161,2299,0,154,2453,231,871,29,575,1,0.000,3,0,1.619,0.038,-0.940,-0.220,1.300,-0.139,-0.076,0.971,0.024,-0.030,0.002,0.000,0.000,0.000,0.000,1,2,0,2,7,255,1020,200,0,1020
stim,15,15,0,742693.829,0.983,0.056,-0.065,-0.161,2311,0,157,2442,236,872,33,581,1,0.000,3,0,1.432,0.080,1.080,0.820,-0.460,-0.165,-0.103,0.991,0.024,-0.076,0.064,0.000,0.000,0.000,0.000,1,2,0,1,7,255,1020,200,1,1020
stim,15,15,0,742698.829,0.983,0.056,-0.065,-0.161,2303,0,159,2440,231,875,31,558,1,0.000,3,0,1.766,0.070,-0.280,-1.320,-1.140,-0.129,-0.089,1.003,0.024,0.066,0.064,0.000,0.000,0.000,0.000,1,2,0,1,7,255,1020,200,6,1020
stim,15,15,0,742703.830,0.983,0.056,-0.065,-0.161,2311,0,159,2449,217,871,29,579,1,0.000,3,0,2.618,0.089,-0.460,0.940,2.400,-0.145,-0.069,0.960,-0.060,0.066,0.064,0.000,0.000,0.000,0.000,1,2,0,1,7,255,1020,200,11,1020
stim,15,15,0,742708.829,0.983,0.056,-0.065,-0.161,2313,0,153,2441,234,876,37,573,1,0.000,3,0,2.251,0.076,1.000,0.260,-2.000,-0.164,-0.114,1.012,-0.038,0.066,0.120,0.000,0.000,0.000,0.000,1,2,0,1,7,255,1020,200,16,1020
stim,47,47,0,742713.829,0.983,0.056,-0.065,-0.161,2311,0,152,2451,236,873,36,576,1,0.000,3,0,1.790,0.147,-1.060,-1.320,0.580,-0.127,-0.074,0.983,-0.038,0.142,-0.084,0.000,0.000,0.000,0.000,1,2,0,1,7,255,1020,200,21,1020
stim,47,47,0,742718.829,0.983,0.056,-0.065,-0.161,2317,0,157,2447,233,871,37,571,1,0.000,3,0,1.596,0.044,0.820,1.240,0.580,-0.156,-0.085,0.974,-0.038,-0.022,-0.084,0.000,0.000,0.000,0.000,1,2,0,1,7,255,1020,200,26,1020
stim,47,47,0,742723.829,0.983,0.056,-0.065,-0.161,2317,0,155,2443,233,871,27,576,1,0.000,3,0,1.215,0.060,-0.640,-0.160,-1.020,-0.150,-0.105,1.009,0.056,-0.022,-0.084,0.000,0.000,0.000,0.000,1,2,0,1,7,255,1020,200,31,1020
stim,47,47,0,742728.829,0.983,0.056,-0.065,-0.161,2303,0,163,2445,235,877,33,583,1,0.000,3,0,1.609,0.060,0.520,-1.320,0.760,-0.132,-0.067,0.973,0.056,-0.022,-0.122,0.000,0.000,0.000,0.000,1,2,0,1,7,255,1020,200,36,1020
stim,64,64,0,742733.829,0.983,0.056,-0.065,-0.161,2319,0,153,2440,241,872,28,575,1,0.000,3,0,2.413,0.153,-0.520,2.340,-0.280,-0.167,-0.108,0.987,0.056,-0.142,0.038,0.000,0.000,0.000,0.000,1,2,0,1,7,255,1020,200,41,1020
stim,64,64,0,742738.830,0.983,0.056,-0.065,-0.161,2321,0,159,2451,233,873,33,581,1,0.000,3,0,2.774,0.225,0.520,-2.720,-0.160,-0.125,-0.073,1.004,0.062,0.216,0.038,0.000,0.000,0.000,0.000,1,2,0,1,7,255,1020,200,46,1020
stim,79,79,0,742743.829,0.983,0.056,-0.065,-0.161,2317,0,161,2444,230,872,33,573,1,0.000,3,0,2.555,0.212,-0.640,2.460,0.260,-0.168,-0.098,0.961,-0.106,-0.184,0.038,0.000,0.000,0.000,0.000,1,2,0,1,7,255,1020,200,51,1020
stim,79,79,0,742748.829,0.983,0.056,-0.065,-0.161,2318,0,157,2441,240,877,33,576,1,0.000,3,0,2.015,0.238,0.640,-1.880,-0.340,-0.125,-0.083,1.018,0.186,0.148,0.108,0.000,0.000,0.000,0.000,1,2,0,1,7,255,1020,200,56,1020
stim,79,79,0,742753.829,0.983,0.056,-0.065,-0.161,2317,0,163,2440,231,877,31,573,1,0.000,3,0,1.407,0.212,-0.520,1.300,0.140,-0.167,-0.090,0.962,-0.180,-0.112,-0.220,0.000,0.000,0.000,0.000,1,2,0,1,7,255,1020,200,61,1020
stim,79,79,0,742758.829,0.983,0.056,-0.065,-0.161,2315,0,157,2456,243,872,29,583,1,0.000,3,0,1.023,0.218,0.340,-0.960,-0.100,-0.129,-0.090,1.011,0.208,0.066,0.194,0.000,0.000,0.000,0.000,1,2,0,1,7,255,1020,200,66,1020
stim,79,79,0,742763.829,0.983,0.056,-0.065,-0.161,2327,0,155,2451,230,883,33,575,1,0.000,3,0,0.773,0.145,-0.140,0.680,-0.340,-0.161,-0.083,0.972,-0.144,-0.018,-0.138,0.000,0.000,0.000,0.000,1,2,0,1,7,255,1020,200,71,1020
stim,79,79,0,742768.829,0.983,0.056,-0.065,-0.161,2311,0,153,2451,248,874,33,582,1,0.000,3,0,0.766,0.146,-0.080,-0.660,0.380,-0.136,-0.095,0.998,0.146,-0.012,0.086,0.000,0.000,0.000,0.000,1,2,0,1,7,255,1020,200,76,1020
stim,95,95,0,742773.829,0.983,0.056,-0.065,-0.161,2312,0,155,2447,243,869,26,573,1,0.000,3,0,0.657,0.053,0.280,0.440,-0.400,-0.151,-0.083,0.983,-0.052,-0.012,-0.048,0.000,0.000,0.000,0.000,1,2,0,1,7,255,1020,200,81,1020
stim,95,95,0,742778.829,0.983,0.056,-0.065,-0.161,2304,0,153,2441,248,876,37,575,1,0.000,3,0,0.562,0.027,-0.340,-0.400,0.200,-0.146,-0.090,0.989,0.024,-0.012,0.008,0.000,0.000,0.000,0.000,1,2,0,1,7,255,1020,200,86,1020
stim,112,112,0,742783.829,0.983,0.056,-0.065,-0.161,2304,0,165,2440,246,877,37,587,1,0.000,3,0,0.346,0.026,0.280,0.200,-0.040,-0.143,-0.091,0.990,0.024,-0.010,0.008,0.000,0.000,0.000,0.000,1,2,0,1,7,255,1020,200,91,1020
stim,112,112,0,742788.829,0.983,0.056,-0.065,-0.161,2323,0,155,2443,243,871,35,576,1,0.000,3,0,0.325,0.026,-0.160,-0.040,-0.280,-0.153,-0.081,0.985,0.024,-0.010,0.008,0.000,0.000,0.000,0.000,1,2,0,1,7,255,1020,200,96,1020
stim,112,112,0,742793.829,0.983,0.056,-0.065,-0.161,2300,0,159,2449,240,877,28,583,1,0.000,3,0,0.279,0.059,0.220,-0.100,0.140,-0.141,-0.097,0.992,0.058,-0.010,0.018,0.000,0.000,0.000,0.000,1,2,0,1,7,255,1020,200,101,1020
stim,112,112,0,742798.829,0.983,0.056,-0.065,-0.161,2301,0,163,2441,240,881,33,583,1,0.000,3,0,0.308,0.042,-0.220,0.200,0.080,-0.150,-0.084,0.986,-0.034,0.024,-0.020,0.000,0.000,0.000,0.000,1,2,0,1,7,255,1020,200,106,1020
stim,127,127,0,742803.829,0.983,0.056,-0.065,-0.161,2323,0,163,2443,239,881,36,572,1,0.000,3,0,0.358,0.018,0.040,-0.220,-0.280,-0.148,-0.086,0.988,-0.008,0.016,0.002,0.000,0.000,0.000,0.000,1,2,0,1,7,255,1020,200,111,1020
stim,127,127,0,742808.829,0.983,0.056,-0.065,-0.161,2325,0,159,2447,240,885,31,581,1,0.000,3,0,0.298,0.018,0.220,0.020,0.200,-0.140,-0.096,0.989,-0.008,0.016,0.002,0.000,0.000,0.000,0.000,1,2,0,1,7,255,1020,200,116,1020
stim,160,160,0,742813.829,0.983,0.056,-0.065,-0.161,2313,0,160,2451,251,874,29,583,1,0.000,3,0,0.448,0.018,-0.400,0.200,0.020,-0.151,-0.085,0.987,-0.008,0.016,0.002,0.000,0.000,0.000,0.000,1,2,0,1,7,255,1020,200,121,1020
stim,160,160,0,742818.829,0.983,0.056,-0.065,-0.161,2323,0,161,2451,244,876,33,576,1,0.000,3,0,0.484,0.017,0.220,-0.160,-0.400,-0.147,-0.083,0.987,-0.006,0.016,-0.004,0.000,0.000,0.000,0.000,1,2,0,1,7,255,1020,200,126,1020
stim,160,160,0,742823.829,0.983,0.056,-0.065,-0.161,2325,0,161,2432,239,877,35,574,1,0.000,3,0,0.370,0.017,0.340,-0.040,0.140,-0.141,-0.097,0.989,-0.006,0.016,-0.004,0.000,0.000,0.000,0.000,1,2,0,1,7,255,1020,200,131,1020
stim,160,160,0,742828.829,0.983,0.056,-0.065,-0.160,2300,0,160,2459,247,871,29,576,1,0.000,3,0,0.561,0.020,-0.460,0.020,0.320,-0.149,-0.090,0.989,-0.002,-0.020,0.006,0.000,0.000,0.000,0.000,1,2,0,1,7,255,1020,200,136,1020
stim,160,160,0,742833.829,0.983,0.056,-0.065,-0.160,2316,0,158,2444,246,874,35,576,1,0.000,3,0,0.587,0.020,0.040,0.080,-0.580,-0.151,-0.077,0.984,-0.002,-0.020,0.006,0.000,0.000,0.000,0.000,1,2,0,1,7,255,1020,200,141,1020
stim,160,160,0,742838.829,0.983,0.056,-0.065,-0.160,2328,0,161,2446,250,873,31,573,1,0.000,3,0,0.562,0.020,0.460,-0.160,-0.280,-0.141,-0.092,0.989,-0.002,-0.020,0.006,0.000,0.000,0.000,0.000,1,2,0,1,7,255,1020,200,146,1020
stim,178,178,0,742843.829,0.983,0.056,-0.065,-0.160,2321,0,161,2451,251,883,35,573,1,0.000,3,0,0.755,0.086,-0.280,-0.040,0.700,-0.143,-0.101,0.992,0.084,-0.020,0.006,0.000,0.000,0.000,0.000,1,2,0,1,7,255,1020,200,151,1020
stim,178,178,0,742848.829,0.983,0.056,-0.065,-0.160,2300,0,159,2455,251,871,33,581,1,0.000,3,0,0.428,0.086,-0.340,0.020,0.260,-0.153,-0.082,0.984,0.084,-0.020,0.006,0.000,0.000,0.000,0.000,1,2,0,1,7,255,1020,200,156,1020
stim,178,178,0,742853.829,0.983,0.056,-0.065,-0.160,2326,0,160,2443,245,875,29,587,1,0.000,3,0,1.041,0.048,0.400,-0.040,-0.960,-0.148,-0.078,0.985,-0.036,0.032,-0.032,0.000,0.000,0.000,0.000,1,2,0,1,7,255,1020,200,161,1020
stim,178,178,0,742858.829,0.983,0.056,-0.065,-0.160,2312,0,155,2453,244,871,37,576,1,0.000,3,0,0.489,0.048,0.400,0.020,-0.280,-0.139,-0.098,0.992,-0.036,0.032,-0.032,0.000,0.000,0.000,0.000,1,2,0,1,7,255,1020,200,166,1020
stim,178,178,0,742863.829,0.983,0.056,-0.065,-0.160,2302,0,159,2461,240,875,35,576,1,0.000,3,0,1.211,0.089,-0.460,0.020,1.120,-0.144,-0.098,0.991,0.068,-0.058,0.030,0.000,0.000,0.000,0.000,1,2,0,1,7,255,1020,200,171,1020
stim,191,191,0,742868.829,0.983,0.056,-0.065,-0.160,2315,0,161,2451,242,876,29,573,1,0.000,3,0,0.779,0.089,-0.340,-0.040,0.700,-0.156,-0.079,0.984,0.068,-0.058,0.030,0.000,0.000,0.000,0.000,1,2,0,1,7,255,1020,200,176,1020
stim,191,191,0,742873.829,0.983,0.056,-0.065,-0.160,2316,0,159,2453,237,876,30,582,1,0.000,3,0,1.119,0.069,0.460,0.020,-1.020,-0.151,-0.081,0.986,-0.048,0.050,-0.022,0.000,0.000,0.000,0.000,1,2,0,1,7,255,1020,200,181,1020
stim,191,191,0,742878.829,0.983,0.056,-0.065,-0.160,2327,0,167,2427,232,875,33,580,1,0.000,3,0,1.000,0.069,0.280,0.020,-0.960,-0.138,-0.097,0.991,-0.048,0.050,-0.022,0.000,0.000,0.000,0.000,1,2,0,1,7,255,1020,200,186,1020
stim,191,191,0,742883.829,0.983,0.056,-0.065,-0.160,2319,0,157,2445,245,875,29,583,1,0.000,3,0,0.850,0.104,-0.220,-0.040,0.820,-0.139,-0.093,0.989,0.102,-0.022,0.000,0.000,0.000,0.000,0.000,1,2,0,1,7,255,1020,200,191,1020
stim,213,213,0,742888.829,0.983,0.056,-0.065,-0.160,2301,0,156,2449,249,875,30,583,1,0.000,3,0,1.306,0.104,-0.080,-0.100,1.300,-0.152,-0.083,0.988,0.102,-0.022,0.000,0.000,0.000,0.000,0.000,1,2,0,1,7,255,1020,200,196,1020
stim,213,213,0,742893.829,0.983,0.056,-0.065,-0.160,2315,0,154,2454,247,878,37,573,1,0.000,3,0,0.147,0.062,0.100,-0.040,-0.100,-0.156,-0.083,0.990,-0.058,0.022,0.000,0.000,0.000,0.000,0.000,1,2,0,1,7,255,1020,200,201,1020
stim,213,213,0,742898.829,0.983,0.056,-0.065,-0.160,2313,0,157,2429,249,873,35,575,1,0.000,3,0,1.140,0.062,-0.020,0.020,-1.140,-0.147,-0.092,0.989,-0.058,0.022,0.010,0.000,0.000,0.000,0.000,1,2,0,1,7,255,1020,200,206,1020
stim,213,213,0,742903.829,0.983,0.056,-0.065,-0.160,2307,0,157,2447,232,883,35,583,1,0.000,3,0,0.489,0.033,0.160,-0.040,-0.460,-0.137,-0.093,0.985,0.024,-0.022,0.010,0.000,0.000,0.000,0.000,1,2,0,1,7,255,1020,200,211,1020
stim,226,226,0,742908.829,0.983,0.056,-0.065,-0.160,2321,0,155,2440,239,871,29,575,1,0.000,3,0,0.893,0.058,0.340,-0.100,0.820,-0.143,-0.089,0.988,0.054,-0.022,-0.008,0.000,0.000,0.000,0.000,1,2,0,1,7,255,1020,200,216,1020
stim,226,226,0,742913.829,0.983,0.056,-0.065,-0.160,2314,0,157,2453,242,877,27,579,1,0.000,3,0,0.891,0.054,0.100,-0.100,0.880,-0.152,-0.085,0.992,0.054,0.000,-0.008,0.000,0.000,0.000,0.000,1,2,0,1,7,255,1020,200,221,1020
stim,258,258,0,742918.829,0.983,0.056,-0.065,-0.160,2313,0,155,2449,245,875,35,576,1,0.000,3,0,0.357,0.042,-0.280,0.020,-0.220,-0.153,-0.084,0.989,-0.040,0.014,0.012,0.000,0.000,0.000,0.000,1,2,0,1,7,255,1020,200,226,1020
stim,258,258,0,742923.830,0.983,0.056,-0.065,-0.160,2315,0,156,2439,243,883,29,583,1,0.000,3,0,0.960,0.042,-0.020,0.020,-0.960,-0.146,-0.088,0.987,-0.040,0.014,0.012,0.000,0.000,0.000,0.000,1,2,0,1,7,255,1020,200,231,1020
stim,258,258,0,742928.829,0.983,0.056,-0.065,-0.160,2323,0,155,2439,245,875,29,575,1,0.000,3,0,0.482,0.020,0.340,-0.040,-0.340,-0.141,-0.092,0.988,0.020,-0.002,-0.002,0.000,0.000,0.000,0.000,1,2,0,1,7,255,1020,200,236,1020
stim,258,258,0,742933.829,0.983,0.056,-0.065,-0.160,2313,0,155,2445,249,883,33,576,1,0.000,3,0,0.531,0.044,0.040,-0.100,0.520,-0.145,-0.090,0.990,0.042,-0.012,-0.002,0.000,0.000,0.000,0.000,1,2,0,1,7,255,1020,200,241,1020
stim,258,258,0,742938.829,0.983,0.056,-0.065,-0.160,2309,0,152,2449,245,877,35,576,1,0.000,3,0,0.628,0.044,-0.220,-0.100,0.580,-0.149,-0.087,0.988,0.042,-0.012,0.004,0.000,0.000,0.000,0.000,1,2,0,1,7,255,1020,200,246,1020
stim,258,258,0,742943.829,0.983,0.056,-0.065,-0.160,2313,0,156,2440,239,871,29,583,1,0.000,3,0,0.262,0.013,-0.140,0.020,-0.220,-0.150,-0.087,0.986,-0.012,-0.006,0.004,0.000,0.000,0.000,0.000,1,2,0,1,7,255,1020,200,251,1020
stim,271,271,0,742948.829,0.983,0.056,-0.065,-0.160,2301,0,154,2452,247,870,29,576,1,0.000,3,0,0.596,0.013,0.280,0.080,-0.520,-0.145,-0.091,0.985,-0.012,-0.006,-0.014,0.000,0.000,0.000,0.000,1,2,0,1,7,255,1020,200,256,1020
stim,271,271,0,742953.829,0.983,0.056,-0.065,-0.160,2313,0,159,2459,242,869,37,584,1,0.000,3,0,0.325,0.040,0.280,-0.040,-0.160,-0.143,-0.090,0.988,0.040,-0.006,-0.014,0.000,0.000,0.000,0.000,1,2,0,1,7,255,1020,200,261,1020
stim,271,271,0,742958.829,0.983,0.056,-0.065,-0.160,2313,0,156,2440,245,878,33,574,1,0.000,3,0,0.338,0.040,0.100,-0.040,0.320,-0.146,-0.086,0.990,0.040,-0.004,-0.002,0.000,0.000,0.000,0.000,1,2,0,1,7,255,1020,200,266,1020
stim,271,271,0,742963.829,0.983,0.056,-0.065,-0.160,2299,0,162,2431,246,875,33,585,1,0.000,3,0,0.298,0.015,-0.220,0.020,0.200,-0.148,-0.087,0.989,0.014,0.004,0.014,0.000,0.000,0.000,0.000,1,2,0,1,7,255,1020,200,271,1020
stim,287,287,0,742968.829,0.983,0.056,-0.065,-0.160,2311,0,165,2446,236,872,29,580,1,0.000,3,0,0.242,0.004,-0.220,0.020,-0.100,-0.148,-0.088,0.987,-0.002,0.004,0.014,0.000,0.000,0.000,0.000,1,2,0,1,7,255,1020,200,276,1020
stim,287,287,0,742973.829,0.983,0.056,-0.065,-0.160,2311,0,164,2440,247,876,33,587,1,0.000,3,0,0.245,0.003,0.100,-0.040,-0.220,-0.146,-0.089,0.986,-0.002,-0.002,-0.006,0.000,0.000,0.000,0.000,1,2,0,1,7,255,1020,200,281,1020
stim,303,303,0,742978.829,0.983,0.056,-0.065,-0.160,2310,0,156,2455,245,874,30,583,1,0.000,3,0,0.298,0.020,0.280,0.020,-0.100,-0.146,-0.088,0.988,0.020,-0.002,-0.006,0.000,0.000,0.000,0.000,1,2,0,1,7,255,1020,200,286,1020
stim,303,303,0,742983.829,0.983,0.056,-0.065,-0.160,2309,0,159,2453,240,877,33,581,1,0.000,3,0,0.162,0.021,0.160,0.020,0.020,-0.146,-0.087,0.990,0.020,0.006,0.000,0.000,0.000,0.000,0.000,1,2,0,1,7,255,1020,200,291,1020
stim,303,303,0,742988.829,0.983,0.056,-0.065,-0.160,2311,0,163,2431,241,878,33,580,1,0.000,3,0,0.166,0.022,-0.160,0.020,-0.040,-0.146,-0.087,0.989,0.020,0.010,0.008,0.000,0.000,0.000,0.000,1,2,0,1,7,255,1020,200,296,1020
stim,303,303,0,742993.829,0.983,0.056,-0.065,-0.160,2303,1,159,2440,249,875,28,585,1,0.000,3,0,0.224,0.022,-0.220,0.020,-0.040,-0.146,-0.088,0.987,0.020,0.010,0.008,0.000,0.000,0.000,0.000,1,2,0,1,7,255,1020,200,301,1020
stim,319,319,0,742998.829,0.983,0.056,-0.065,-0.160,2315,0,156,2458,249,877,24,587,1,0.000,3,0,0.049,0.020,-0.020,0.020,-0.040,-0.146,-0.089,0.987,0.020,0.004,-0.012,0.000,0.000,0.000,0.000,1,2,0,1,7,255,1020,200,306,1020
stim,319,319,0,743003.829,0.983,0.056,-0.065,-0.160,2299,0,158,2445,243,874,27,583,1,0.000,3,0,0.104,0.015,0.100,0.020,0.020,-0.146,-0.089,0.988,0.014,-0.006,-0.012,0.000,0.000,0.000,0.000,1,2,0,1,7,255,1020,200,311,1020
stim,351,351,0,743008.829,0.983,0.056,-0.065,-0.160,2300,1,157,2457,245,872,35,582,1,0.000,3,0,0.143,0.015,0.100,0.020,-0.100,-0.146,-0.087,0.989,0.014,-0.006,-0.002,0.000,0.000,0.000,0.000,1,2,0,1,7,255,1020,200,316,1020
stim,351,351,0,743013.829,0.983,0.056,-0.065,-0.160,2311,0,154,2449,247,871,34,586,1,0.000,3,0,0.092,0.015,-0.080,0.020,-0.040,-0.147,-0.088,0.990,0.014,0.004,0.006,0.000,0.000,0.000,0.000,1,2,0,1,7,255,1020,200,321,1020
stim,351,351,0,743018.829,0.983,0.056,-0.065,-0.160,2321,0,163,2432,243,876,33,581,1,0.000,3,0,0.085,0.015,-0.080,0.020,0.020,-0.146,-0.089,0.987,0.014,0.004,0.006,0.000,0.000,0.000,0.000,1,2,0,1,7,255,1020,200,326,1020
stim,351,351,0,743023.829,0.983,0.056,-0.065,-0.160,2315,0,165,2441,232,883,29,575,1,0.000,3,0,0.115,0.017,-0.080,0.020,0.080,-0.146,-0.089,0.988,0.014,-0.010,-0.002,0.000,0.000,0.000,0.000,1,2,0,1,7,255,1020,200,331,1020
stim,351,351,0,743028.829,0.983,0.056,-0.065,-0.160,2302,0,159,2451,233,881,29,581,1,0.000,3,0,0.110,0.017,0.100,-0.040,0.020,-0.146,-0.088,0.987,0.014,-0.010,-0.008,0.000,0.000,0.000,0.000,1,2,0,1,7,255,1020,200,336,1020
stim,351,351,0,743033.829,0.983,0.056,-0.065,-0.160,2309,0,155,2451,228,883,30,576,1,0.000,3,0,0.115,0.014,0.100,-0.040,-0.040,-0.146,-0.088,0.989,0.014,-0.002,-0.002,0.000,0.000,0.000,0.000,1,2,0,1,7,255,1020,200,341,1020
stim,351,351,0,743038.829,0.983,0.056,-0.065,-0.160,2313,0,155,2441,248,874,28,584,1,0.000,3,0,0.104,0.017,0.100,0.020,0.020,-0.145,-0.088,0.989,0.016,0.006,0.006,0.000,0.000,0.000,0.000,1,2,0,1,7,255,1020,200,346,1020
stim,387,387,0,743043.829,0.983,0.056,-0.065,-0.160,2300,0,155,2444,238,875,33,582,1,0.000,3,0,0.151,0.017,0.040,-0.040,0.140,-0.146,-0.089,0.987,0.016,0.006,0.006,0.000,0.000,0.000,0.000,1,2,0,1,7,255,1020,200,351,1020
stim,387,387,0,743048.829,0.983,0.056,-0.065,-0.160,2299,0,161,2443,238,871,31,584,1,0.000,3,0,0.098,0.016,0.040,-0.040,0.080,-0.147,-0.089,0.987,0.016,-0.004,-0.008,0.000,0.000,0.000,0.000,1,2,0,1,7,255,1020,200,356,1020
stim,387,387,0,743053.829,0.983,0.056,-0.065,-0.160,2298,0,157,2459,241,871,33,583,1,0.000,3,0,0.166,0.011,0.160,-0.040,0.020,-0.147,-0.089,0.988,0.008,-0.008,-0.008,0.000,0.000,0.000,0.000,1,2,0,1,7,255,1020,200,361,1020
stim,387,387,0,743058.829,0.983,0.056,-0.065,-0.160,2315,0,163,2452,238,878,29,587,1,0.000,3,0,0.162,0.010,0.160,0.020,0.020,-0.147,-0.088,0.987,0.006,-0.008,-0.006,0.000,0.000,0.000,0.000,1,2,0,1,7,255,1020,200,366,1020
stim,387,387,0,743063.829,0.983,0.056,-0.065,-0.160,2317,0,154,2440,242,875,31,575,1,0.000,3,0,0.115,0.006,0.100,-0.040,-0.040,-0.146,-0.087,0.988,0.006,-0.002,0.000,0.000,0.000,0.000,0.000,1,2,0,1,7,255,1020,200,371,1020
stim,387,387,0,743068.829,0.983,0.056,-0.065,-0.160,2313,0,157,2449,246,879,33,576,1,0.000,3,0,0.134,0.006,0.100,-0.040,0.080,-0.146,-0.090,0.988,0.006,-0.002,0.000,0.000,0.000,0.000,0.000,1,2,0,1,7,255,1020,200,376,1020
stim,388,388,0,743073.829,0.983,0.056,-0.065,-0.160,2317,0,156,2461,237,871,28,579,1,0.000,3,0,0.190,0.016,0.160,-0.100,0.020,-0.146,-0.089,0.988,0.014,-0.008,0.002,0.000,0.000,0.000,0.000,1,2,0,1,7,255,1020,200,381,1020
stim,388,388,0,743078.829,0.983,0.056,-0.065,-0.160,2323,0,158,2455,249,872,35,587,1,0.000,3,0,0.183,0.018,0.160,-0.040,0.080,-0.146,-0.089,0.989,0.016,-0.008,0.002,0.000,0.000,0.000,0.000,1,2,0,1,7,255,1020,200,386,1020
stim,399,399,0,743083.829,0.983,0.056,-0.065,-0.160,2302,0,158,2446,236,875,29,583,1,0.000,3,0,0.166,0.014,0.160,-0.040,0.020,-0.148,-0.087,0.988,0.014,-0.002,0.004,0.000,0.000,0.000,0.000,1,2,0,1,7,255,1020,200,391,1020
stim,399,399,0,743088.829,0.983,0.056,-0.065,-0.160,2309,0,163,2458,236,877,33,584,1,0.000,3,0,0.104,0.016,0.100,0.020,0.020,-0.146,-0.088,0.988,0.016,0.004,0.004,0.000,0.000,0.000,0.000,1,2,0,1,7,255,1020,200,396,1020
stim,415,415,0,743093.829,0.983,0.056,-0.065,-0.160,2299,0,159,2455,245,879,30,587,1,0.000,3,0,0.060,0.020,0.040,-0.040,0.020,-0.146,-0.088,0.989,0.020,0.004,0.004,0.000,0.000,0.000,0.000,1,2,0,1,7,255,1020,200,401,1020
stim,415,415,0,743098.829,0.983,0.056,-0.065,-0.160,2299,0,165,2451,248,876,37,575,1,0.000,3,0,0.049,0.020,0.040,0.020,0.020,-0.146,-0.088,0.988,0.020,0.004,0.000,0.000,0.000,0.000,0.000,1,2,0,1,7,255,1020,200,406,1020
stim,415,415,0,743103.830,0.983,0.056,-0.065,-0.160,2317,0,161,2447,245,877,31,584,1,0.000,3,0,0.035,0.013,-0.020,0.020,0.020,-0.147,-0.088,0.987,0.012,0.004,0.000,0.000,0.000,0.000,0.000,1,2,0,1,7,255,1020,200,411,1020
stim,415,415,0,743108.829,0.983,0.056,-0.065,-0.160,2297,0,157,2429,241,872,29,573,1,0.000,3,0,0.060,0.003,0.040,0.020,-0.040,-0.147,-0.088,0.986,0.002,0.002,-0.008,0.000,0.000,0.000,0.000,1,2,0,1,7,255,1020,200,416,1020
stim,463,463,0,743113.829,0.983,0.056,-0.065,-0.160,2313,0,156,2453,235,877,33,575,1,0.000,3,0,0.049,0.003,0.040,0.020,0.020,-0.146,-0.088,0.988,0.002,0.002,-0.008,0.000,0.000,0.000,0.000,1,2,0,1,7,255,1020,200,421,1020
stim,463,463,0,743118.829,0.983,0.056,-0.065,-0.160,2301,0,165,2445,241,879,28,585,1,0.000,3,0,0.060,0.003,0.040,0.020,-0.040,-0.147,-0.088,0.989,0.002,0.002,-0.004,0.000,0.000,0.000,0.000,1,2,0,1,7,255,1020,200,426,1020
stim,463,463,0,743123.829,0.983,0.056,-0.065,-0.160,2316,0,155,2443,234,879,28,576,1,0.000,3,0,0.060,0.014,0.040,0.020,-0.040,-0.146,-0.088,0.988,0.014,0.002,-0.004,0.000,0.000,0.000,0.000,1,2,0,1,7,255,1020,200,431,1020
stim,463,463,0,743128.829,0.983,0.056,-0.065,-0.160,2315,0,161,2445,239,880,35,581,1,0.000,3,0,0.069,0.004,0.040,-0.040,-0.040,-0.147,-0.088,0.988,0.004,0.002,-0.002,0.000,0.000,0.000,0.000,1,2,0,1,7,255,1020,200,436,1020
stim,463,463,0,743133.829,0.983,0.056,-0.065,-0.160,2325,0,158,2443,233,887,33,583,1,0.000,3,0,0.060,0.010,0.040,0.020,-0.040,-0.146,-0.087,0.988,0.010,0.002,-0.002,0.000,0.000,0.000,0.000,1,2,0,1,7,255,1020,200,441,1020
stim,463,463,0,743138.829,0.983,0.056,-0.065,-0.160,2317,0,161,2443,236,872,33,576,1,0.000,3,0,0.110,0.008,0.040,0.020,-0.100,-0.146,-0.088,0.988,0.006,0.006,-0.002,0.000,0.000,0.000,0.000,1,2,0,1,7,255,1020,200,446,1020
stim,479,479,0,743143.829,0.983,0.056,-0.065,-0.160,2323,0,163,2439,234,875,31,585,1,0.000,3,0,0.104,0.011,-0.020,0.020,-0.100,-0.146,-0.088,0.989,0.008,0.008,0.000,0.000,0.000,0.000,0.000,1,2,0,1,7,255,1020,200,451,1020
stim,479,479,0,743148.829,0.983,0.056,-0.065,-0.160,2322,0,157,2453,240,883,37,576,1,0.000,3,0,0.110,0.008,-0.020,-0.040,-0.100,-0.147,-0.088,0.989,0.006,0.006,0.008,0.000,0.000,0.000,0.000,1,2,0,1,7,255,1020,200,456,1020
stim,479,479,0,743153.829,0.983,0.056,-0.065,-0.160,2304,0,160,2432,241,879,29,583,1,0.000,3,0,0.060,0.008,0.040,0.020,-0.040,-0.146,-0.089,0.988,0.008,0.000,0.008,0.000,0.000,0.000,0.000,1,2,0,1,7,255,1020,200,461,1020
stim,479,479,0,743158.829,0.983,0.056,-0.065,-0.160,2311,0,155,2460,243,883,33,585,1,0.000,3,0,0.060,0.014,-0.020,-0.040,-0.040,-0.145,-0.088,0.989,0.014,0.000,0.008,0.000,0.000,0.000,0.000,1,2,0,1,7,255,1020,200,466,1020
stim,479,479,0,743163.829,0.983,0.056,-0.065,-0.160,2323,0,155,2455,247,877,30,587,1,0.000,3,0,0.060,0.014,-0.020,-0.040,-0.040,-0.147,-0.088,0.987,0.014,-0.002,-0.002,0.000,0.000,0.000,0.000,1,2,0,1,7,255,1020,200,471,1020
stim,495,495,0,743168.829,0.983,0.056,-0.065,-0.160,2309,0,159,2442,239,877,29,583,1,0.000,3,0,0.134,0.018,-0.080,-0.040,-0.100,-0.146,-0.087,0.988,0.014,0.012,-0.004,0.000,0.000,0.000,0.000,1,2,0,1,7,255,1020,200,476,1020
stim,495,495,0,743173.829,0.983,0.056,-0.065,-0.160,2315,0,157,2449,235,877,34,584,1,0.000,3,0,0.130,0.013,-0.080,0.020,-0.100,-0.146,-0.087,0.989,0.006,0.012,-0.004,0.000,0.000,0.000,0.000,1,2,0,1,7,255,1020,200,481,1020
stim,495,495,0,743178.829,0.983,0.056,-0.065,-0.160,2327,0,159,2428,237,883,31,582,1,0.000,3,0,0.134,0.013,-0.080,-0.040,-0.100,-0.148,-0.088,0.987,0.006,0.012,-0.004,0.000,0.000,0.000,0.000,1,2,0,1,7,255,1020,200,486,1020
stim,495,495,0,743183.829,0.983,0.056,-0.065,-0.160,2315,0,165,2444,235,875,29,587,1,0.000,3,0,0.035,0.013,-0.020,0.020,0.020,-0.146,-0.087,0.988,0.004,0.012,0.000,0.000,0.000,0.000,0.000,1,2,0,1,7,255,1020,200,491,1020
stim,511,511,0,743188.829,0.983,0.056,-0.065,-0.160,2311,1,156,2444,247,875,30,588,1,0.000,3,0,0.060,0.004,0.040,0.020,-0.040,-0.146,-0.089,0.987,0.004,0.000,-0.006,0.000,0.000,0.000,0.000,1,2,0,1,7,255,1020,200,496,1020
stim,511,511,0,743193.829,0.983,0.056,-0.065,-0.160,2309,0,161,2455,245,873,33,574,1,0.000,3,0,0.060,0.004,-0.020,-0.040,-0.040,-0.147,-0.089,0.988,0.004,-0.002,-0.002,0.000,0.000,0.000,0.000,1,2,0,1,7,255,1020,200,501,1020
stim,511,511,0,743198.829,0.983,0.056,-0.065,-0.160,2302,0,156,2449,240,873,26,583,1,0.000,3,0,0.035,0.004,-0.020,0.020,0.020,-0.147,-0.088,0.988,0.004,-0.002,-0.002,0.000,0.000,0.000,0.000,1,2,0,1,7,255,1020,200,506,1020
stim,511,511,0,743203.829,0.983,0.056,-0.065,-0.160,2304,0,158,2459,237,873,30,585,1,0.000,3,0,0.069,0.004,0.040,-0.040,-0.040,-0.146,-0.087,0.987,0.004,0.000,-0.002,0.000,0.000,0.000,0.000,1,2,0,1,7,255,1020,200,511,1020
stim,527,527,0,743208.829,0.983,0.056,-0.065,-0.160,2317,0,160,2445,237,876,29,579,1,0.000,3,0,0.069,0.004,0.040,-0.040,-0.040,-0.146,-0.089,0.987,0.004,0.000,-0.008,0.000,0.000,0.000,0.000,1,2,0,1,7,255,1020,200,516,1020
stim,527,527,0,743213.829,0.983,0.056,-0.065,-0.160,2315,0,163,2430,228,869,31,583,1,0.000,3,0,0.069,0.007,0.040,-0.040,-0.040,-0.147,-0.088,0.989,0.004,0.006,-0.008,0.000,0.000,0.000,0.000,1,2,0,1,7,255,1020,200,521,1020
stim,560,560,0,743218.829,0.983,0.056,-0.065,-0.160,2303,0,156,2449,240,885,35,585,1,0.000,3,0,0.060,0.004,0.040,0.020,-0.040,-0.147,-0.089,0.988,0.004,0.000,0.004,0.000,0.000,0.000,0.000,1,2,0,1,7,255,1020,200,526,1020
stim,560,560,0,743223.829,0.983,0.056,-0.065,-0.160,2317,0,165,2453,243,872,31,583,1,0.000,3,0,0.069,0.004,0.040,-0.040,-0.040,-0.147,-0.088,0.989,0.004,0.002,0.012,0.000,0.000,0.000,0.000,1,2,0,1,7,255,1020,200,531,1020
stim,560,560,0,743228.829,0.983,0.056,-0.065,-0.160,2323,0,160,2441,247,883,31,581,1,0.000,3,0,0.069,0.004,0.040,-0.040,-0.040,-0.146,-0.088,0.987,0.004,0.002,0.004,0.000,0.000,0.000,0.000,1,2,0,1,7,255,1020,200,536,1020
stim,560,560,0,743233.829,0.983,0.056,-0.065,-0.160,2315,0,159,2432,251,876,35,584,1,0.000,3,0,0.049,0.004,-0.020,0.020,-0.040,-0.146,-0.089,0.988,0.004,0.002,-0.002,0.000,0.000,0.000,0.000,1,2,0,1,7,255,1020,200,541,1020
stim,560,560,0,743238.829,0.983,0.056,-0.065,-0.160,2308,0,155,2452,229,877,36,576,1,0.000,3,0,0.060,0.012,0.040,0.020,-0.040,-0.146,-0.088,0.988,0.010,0.006,-0.002,0.000,0.000,0.000,0.000,1,2,0,1,7,255,1020,200,546,1020
stim,560,560,0,743243.829,0.983,0.056,-0.065,-0.160,2319,0,163,2441,233,885,33,575,1,0.000,3,0,0.069,0.010,0.040,-0.040,-0.040,-0.146,-0.089,0.988,0.010,-0.002,0.000,0.000,0.000,0.000,0.000,1,2,0,1,7,255,1020,200,551,1020
stim,578,578,0,743248.829,0.983,0.056,-0.065,-0.160,2303,0,159,2455,237,883,28,583,1,0.000,3,0,0.060,0.008,0.040,0.020,-0.040,-0.146,-0.089,0.987,0.008,-0.002,0.000,0.000,0.000,0.000,0.000,1,2,0,1,7,255,1020,200,556,1020
stim,578,578,0,743253.829,0.983,0.056,-0.065,-0.160,2323,0,155,2442,228,871,30,576,1,0.000,3,0,0.060,0.008,-0.020,-0.040,-0.040,-0.146,-0.089,0.989,0.008,-0.002,0.002,0.000,0.000,0.000,0.000,1,2,0,1,7,255,1020,200,561,1020
stim,578,578,0,743258.829,0.983,0.056,-0.065,-0.160,2315,0,157,2449,232,875,37,583,1,0.000,3,0,0.060,0.006,0.040,-0.040,0.020,-0.146,-0.088,0.988,0.006,-0.002,-0.002,0.000,0.000,0.000,0.000,1,2,0,1,7,255,1020,200,566,1020
stim,578,578,0,743263.829,0.983,0.056,-0.065,-0.160,2313,0,163,2442,237,873,31,587,1,0.000,3,0,0.049,0.008,0.040,0.020,0.020,-0.146,-0.089,0.987,0.008,-0.002,-0.002,0.000,0.000,0.000,0.000,1,2,0,1,7,255,1020,200,571,1020
stim,592,592,0,743268.829,0.983,0.056,-0.065,-0.160,2312,0,158,2440,242,880,29,585,1,0.000,3,0,0.092,0.010,0.040,0.020,0.080,-0.146,-0.089,0.987,0.010,0.000,-0.008,0.000,0.000,0.000,0.000,1,2,0,1,7,255,1020,200,576,1020
stim,592,592,0,743273.829,0.983,0.056,-0.065,-0.160,2315,0,158,2451,246,881,30,583,1,0.000,3,0,0.060,0.010,0.040,-0.040,0.020,-0.146,-0.089,0.987,0.010,-0.002,-0.008,0.000,0.000,0.000,0.000,1,2,0,1,7,255,1020,200,581,1020
stim,611,611,0,743278.829,0.983,0.056,-0.065,-0.160,2301,0,155,2455,240,875,33,583,1,0.000,3,0,0.060,0.010,0.040,-0.040,0.020,-0.147,-0.089,0.988,0.010,-0.002,-0.008,0.000,0.000,0.000,0.000,1,2,0,1,7,255,1020,200,586,1020
stim,611,611,0,743283.829,0.983,0.056,-0.065,-0.160,2300,0,160,2449,242,877,29,585,1,0.000,3,0,0.098,0.011,0.040,-0.040,0.080,-0.146,-0.089,0.987,0.010,-0.004,-0.008,0.000,0.000,0.000,0.000,1,2,0,1,7,255,1020,200,591,1020
stim,611,611,0,743288.829,0.983,0.056,-0.065,-0.160,2313,0,163,2445,233,875,33,587,1,0.000,3,0,0.110,0.006,0.100,-0.040,0.020,-0.147,-0.089,0.987,0.004,-0.004,-0.006,0.000,0.000,0.000,0.000,1,2,0,1,7,255,1020,200,596,1020
stim,611,611,0,743293.829,0.983,0.057,-0.065,-0.160,2308,0,155,2459,245,879,31,582,1,0.000,3,0,0.134,0.004,0.100,-0.040,0.080,-0.146,-0.088,0.987,0.002,-0.004,-0.008,0.000,0.000,0.000,0.000,1,2,0,1,7,255,1020,200,601,1020
stim,623,623,0,743298.829,0.983,0.057,-0.065,-0.160,2309,0,155,2451,243,874,35,581,1,0.000,3,0,0.134,0.003,0.100,-0.040,0.080,-0.146,-0.088,0.988,0.002,0.002,-0.006,0.000,0.000,0.000,0.000,1,2,0,1,7,255,1020,200,606,1020
stim,623,623,0,743303.830,0.983,0.057,-0.065,-0.160,2301,0,157,2451,237,876,33,585,1,0.000,3,0,0.134,0.003,0.100,-0.040,0.080,-0.147,-0.088,0.988,0.002,0.002,-0.002,0.000,0.000,0.000,0.000,1,2,0,1,7,255,1020,200,611,1020
stim,656,656,0,743308.829,0.983,0.057,-0.065,-0.160,2293,0,155,2441,234,880,33,584,1,0.000,3,0,0.134,0.002,0.100,-0.040,0.080,-0.147,-0.088,0.988,0.000,0.002,-0.002,0.000,0.000,0.000,0.000,1,2,0,1,7,255,1020,200,616,1020
stim,656,656,0,743313.829,0.983,0.057,-0.065,-0.160,2313,0,160,2440,245,881,28,585,1,0.000,3,0,0.110,0.002,0.100,-0.040,0.020,-0.146,-0.089,0.988,0.000,0.002,0.002,0.000,0.000,0.000,0.000,1,2,0,1,7,255,1020,200,621,1020
stim,656,656,0,743318.829,0.983,0.057,-0.065,-0.160,2315,0,157,2445,245,884,31,583,1,0.000,3,0,0.183,0.004,0.160,-0.040,0.080,-0.146,-0.088,0.988,0.004,0.002,0.002,0.000,0.000,0.000,0.000,1,2,0,1,7,255,1020,200,626,1020
stim,656,656,0,743323.829,0.983,0.057,-0.065,-0.160,2301,0,163,2444,234,873,31,583,1,0.000,3,0,0.130,0.007,0.100,0.020,0.080,-0.147,-0.088,0.988,0.004,0.006,0.002,0.000,0.000,0.000,0.000,1,2,0,1,7,255,1020,200,631,1020
stim,656,656,0,743328.829,0.983,0.057,-0.065,-0.160,2303,0,160,2448,244,872,29,587,1,0.000,3,0,0.110,0.007,0.100,-0.040,0.020,-0.146,-0.089,0.987,0.004,0.006,0.002,0.000,0.000,0.000,0.000,1,2,0,1,7,255,1020,200,636,1020
stim,656,656,0,743333.829,0.983,0.057,-0.065,-0.160,2315,0,158,2440,246,875,33,573,1,0.000,3,0,0.134,0.004,0.100,-0.040,0.080,-0.147,-0.088,0.988,-0.002,0.004,-0.002,0.000,0.000,0.000,0.000,1,2,0,1,7,255,1020,200,641,1020
stim,656,656,0,743338.830,0.983,0.057,-0.065,-0.160,2302,0,159,2453,243,881,29,587,1,0.000,3,0,0.060,0.006,0.040,-0.040,0.020,-0.146,-0.089,0.988,0.006,-0.002,-0.002,0.000,0.000,0.000,0.000,1,2,0,1,7,255,1020,200,646,1020
stim,677,677,0,743343.829,0.983,0.057,-0.065,-0.160,2315,0,158,2449,241,885,27,583,1,0.000,3,0,0.060,0.007,0.040,-0.040,0.020,-0.146,-0.087,0.988,0.006,0.004,-0.002,0.000,0.000,0.000,0.000,1,2,0,1,7,255,1020,200,651,1020
stim,677,677,0,743348.829,0.983,0.057,-0.065,-0.160,2301,0,155,2431,237,875,35,583,1,0.000,3,0,0.060,0.015,0.040,-0.040,0.020,-0.146,-0.087,0.988,0.006,0.014,0.000,0.000,0.000,0.000,0.000,1,2,0,1,7,255,1020,200,656,1020
stim,677,677,0,743353.829,0.983,0.057,-0.065,-0.160,2313,0,156,2456,237,871,31,587,1,0.000,3,0,0.110,0.015,0.100,-0.040,0.020,-0.146,-0.087,0.988,0.006,0.014,0.000,0.000,0.000,0.000,0.000,1,2,0,1,7,255,1020,200,661,1020
stim,677,677,0,743358.829,0.983,0.057,-0.065,-0.160,2309,0,158,2444,243,882,37,585,1,0.000,3,0,0.110,0.012,0.100,-0.040,0.020,-0.147,-0.089,0.987,0.002,0.012,0.000,0.000,0.000,0.000,0.000,1,2,0,1,7,255,1020,200,666,1020
stim,678,678,0,743363.829,0.983,0.057,-0.065,-0.160,2311,0,161,2451,234,868,30,584,1,0.000,3,0,0.060,0.002,0.040,-0.040,0.020,-0.146,-0.089,0.988,0.002,0.000,0.002,0.000,0.000,0.000,0.000,1,2,0,1,7,255,1020,200,671,1020
stim,678,678,0,743368.829,0.983,0.057,-0.065,-0.160,2300,0,156,2457,232,875,33,582,1,0.000,3,0,0.134,0.004,0.100,-0.040,0.080,-0.147,-0.089,0.988,0.002,-0.004,0.004,0.000,0.000,0.000,0.000,1,2,0,1,7,255,1020,200,676,1020
stim,688,688,0,743373.829,0.983,0.057,-0.065,-0.160,2317,0,156,2443,236,872,31,574,1,0.000,3,0,0.060,0.002,0.040,-0.040,0.020,-0.146,-0.088,0.988,0.002,0.000,0.004,0.000,0.000,0.000,0.000,1,2,0,1,7,255,1020,200,681,1020
stim,688,688,0,743378.829,0.983,0.057,-0.065,-0.160,2300,0,159,2457,233,875,33,587,1,0.000,3,0,0.060,0.002,0.040,-0.040,0.020,-0.146,-0.089,0.988,0.002,0.000,0.002,0.000,0.000,0.000,0.000,1,2,0,1,7,255,1020,200,686,1020
stim,704,704,0,743383.829,0.983,0.057,-0.065,-0.160,2323,0,157,2444,238,879,37,576,1,0.000,3,0,0.134,0.008,0.100,-0.040,0.080,-0.146,-0.088,0.989,0.002,0.008,0.002,0.000,0.000,0.000,0.000,1,2,0,1,7,255,1020,200,691,1020
stim,704,704,0,743388.829,0.983,0.057,-0.065,-0.160,2317,0,156,2451,237,877,35,583,1,0.000,3,0,0.060,0.006,0.040,-0.040,0.020,-0.146,-0.089,0.988,0.006,0.000,0.002,0.000,0.000,0.000,0.000,1,2,0,1,7,255,1020,200,696,1020
stim,719,719,0,743393.829,0.983,0.057,-0.065,-0.160,2318,0,160,2432,239,878,29,587,1,0.000,3,0,0.110,0.006,0.100,-0.040,0.020,-0.146,-0.090,0.988,0.006,0.000,0.002,0.000,0.000,0.000,0.000,1,2,0,1,7,255,1020,200,701,1020
stim,719,719,0,743398.829,0.983,0.057,-0.065,-0.160,2299,0,156,2445,237,877,33,584,1,0.000,3,0,0.060,0.006,0.040,-0.040,0.020,-0.146,-0.088,0.989,0.006,0.000,0.002,0.000,0.000,0.000,0.000,1,2,0,1,7,255,1020,200,706,1020
stim,719,719,0,743403.829,0.983,0.057,-0.065,-0.160,2300,0,165,2447,245,879,33,586,1,0.000,3,0,0.098,0.008,0.040,-0.040,0.080,-0.146,-0.088,0.988,0.006,0.006,-0.002,0.000,0.000,0.000,0.000,1,2,0,1,7,255,1020,200,711,1020
stim,719,719,0,743408.829,0.983,0.057,-0.065,-0.160,2319,0,162,2443,233,879,33,586,1,0.000,3,0,0.060,0.012,0.040,-0.040,0.020,-0.146,-0.088,0.988,0.006,0.010,0.002,0.000,0.000,0.000,0.000,1,2,0,1,7,255,1020,200,716,1020
stim,751,751,0,743413.829,0.983,0.057,-0.065,-0.160,2303,0,160,2457,237,885,31,587,1,0.000,3,0,0.049,0.012,0.040,0.020,0.020,-0.147,-0.088,0.988,0.006,0.010,-0.002,0.000,0.000,0.000,0.000,1,2,0,1,7,255,1020,200,721,1020
stim,751,751,0,743418.829,0.983,0.057,-0.065,-0.160,2301,0,156,2459,240,879,33,583,1,0.000,3,0,0.060,0.006,0.040,0.020,-0.040,-0.147,-0.088,0.988,-0.002,0.006,0.002,0.000,0.000,0.000,0.000,1,2,0,1,7,255,1020,200,726,1020
stim,752,752,0,743423.829,0.983,0.057,-0.065,-0.160,2322,0,165,2447,233,883,29,586,1,0.000,3,0,0.060,0.004,0.040,0.020,-0.040,-0.146,-0.089,0.989,-0.002,0.004,0.004,0.000,0.000,0.000,0.000,1,2,0,1,7,255,1020,200,731,1020
stim,752,752,0,743428.829,0.983,0.057,-0.065,-0.160,2331,0,161,2452,237,874,33,581,1,0.000,3,0,0.049,0.004,-0.020,0.020,-0.040,-0.147,-0.087,0.989,-0.002,0.004,0.006,0.000,0.000,0.000,0.000,1,2,0,1,7,255,1020,200,736,1020
stim,752,752,0,743433.829,0.983,0.057,-0.065,-0.160,2311,0,163,2459,243,880,37,584,1,0.000,3,0,0.049,0.011,-0.020,0.020,-0.040,-0.148,-0.087,0.987,-0.008,0.008,0.006,0.000,0.000,0.000,0.000,1,2,0,1,7,255,1020,200,741,1020
stim,752,752,0,743438.830,0.983,0.057,-0.065,-0.160,2314,0,160,2447,243,876,31,585,1,0.000,3,0,0.049,0.013,-0.020,0.020,-0.040,-0.146,-0.088,0.988,-0.008,0.010,0.002,0.000,0.000,0.000,0.000,1,2,0,1,7,255,1020,200,746,1020
stim,767,767,0,743443.829,0.983,0.057,-0.065,-0.160,2300,1,158,2451,241,876,30,587,1,0.000,3,0,0.104,0.008,-0.020,0.020,-0.100,-0.146,-0.089,0.987,0.002,0.008,-0.006,0.000,0.000,0.000,0.000,1,2,0,1,7,255,1020,200,751,1020
stim,767,767,0,743448.829,0.983,0.057,-0.065,-0.160,2317,0,162,2451,238,872,33,584,1,0.000,3,0,0.104,0.010,-0.020,0.020,-0.100,-0.146,-0.088,0.988,0.002,0.010,0.002,0.000,0.000,0.000,0.000,1,2,0,1,7,255,1020,200,756,1020
stim,767,767,0,743453.829,0.983,0.057,-0.065,-0.160,2301,0,159,2456,244,875,33,587,1,0.000,3,0,0.130,0.004,-0.080,0.020,-0.100,-0.146,-0.089,0.988,0.004,0.002,-0.002,0.000,0.000,0.000,0.000,1,2,0,1,7,255,1020,200,761,1020
stim,767,767,0,743458.829,0.983,0.057,-0.065,-0.160,2316,0,162,2445,247,883,28,585,1,0.000,3,0,0.110,0.012,0.040,0.020,-0.100,-0.146,-0.088,0.988,0.006,0.010,0.002,0.000,0.000,0.000,0.000,1,2,0,1,7,255,1020,200,766,1020
stim,784,784,0,743463.829,0.983,0.057,-0.065,-0.160,2315,0,160,2431,243,874,29,583,1,0.000,3,0,0.110,0.008,-0.020,-0.040,-0.100,-0.147,-0.088,0.990,0.006,0.006,0.002,0.000,0.000,0.000,0.000,1,2,0,1,7,255,1020,200,771,1020
stim,784,784,0,743468.829,0.983,0.057,-0.065,-0.160,2312,0,160,2431,237,879,29,582,1,0.000,3,0,0.104,0.012,-0.020,0.020,-0.100,-0.146,-0.087,0.988,0.006,0.010,0.002,0.000,0.000,0.000,0.000,1,2,0,1,7,255,1020,200,776,1020
stim,799,799,0,743473.829,0.983,0.057,-0.065,-0.160,2318,0,163,2443,235,878,28,587,1,0.000,3,0,0.060,0.010,-0.020,-0.040,-0.040,-0.146,-0.088,0.988,0.008,0.006,0.002,0.000,0.000,0.000,0.000,1,2,0,1,7,255,1020,200,781,1020
stim,799,799,0,743478.829,0.983,0.057,-0.065,-0.160,2302,0,159,2457,237,885,33,587,1,0.000,3,0,0.069,0.010,0.040,-0.040,-0.040,-0.146,-0.089,0.988,0.008,0.006,0.002,0.000,0.000,0.000,0.000,1,2,0,1,7,255,1020,200,786,1020
stim,799,799,0,743483.829,0.983,0.057,-0.065,-0.160,2299,0,159,2458,237,885,29,585,1,0.000,3,0,0.060,0.010,-0.020,-0.040,-0.040,-0.146,-0.088,0.988,0.008,0.006,0.002,0.000,0.000,0.000,0.000,1,2,0,1,7,255,1020,200,791,1020
stim,799,799,0,743488.829,0.983,0.057,-0.065,-0.160,2311,0,162,2463,234,880,30,584,1,0.000,3,0,0.069,0.007,0.040,-0.040,-0.040,-0.146,-0.088,0.988,0.006,0.004,0.002,0.000,0.000,0.000,0.000,1,2,0,1,7,255,1020,200,796,1020
stim,815,815,0,743493.829,0.983,0.057,-0.065,-0.160,2316,0,157,2443,245,877,29,583,1,0.000,3,0,0.060,0.008,0.040,0.020,-0.040,-0.146,-0.088,0.988,0.006,0.006,-0.002,0.000,0.000,0.000,0.000,1,2,0,1,7,255,1020,200,801,1020
stim,815,815,0,743498.829,0.983,0.057,-0.065,-0.160,2323,0,160,2431,239,885,35,581,1,0.000,3,0,0.110,0.008,0.040,0.020,-0.100,-0.146,-0.087,0.988,0.002,0.008,-0.004,0.000,0.000,0.000,0.000,1,2,0,1,7,255,1020,200,806,1020
stim,831,831,0,743503.829,0.983,0.057,-0.065,-0.160,2321,0,159,2443,240,876,36,582,1,0.000,3,0,0.049,0.008,-0.020,0.020,-0.040,-0.147,-0.088,0.988,0.002,0.008,-0.004,0.000,0.000,0.000,0.000,1,2,0,1,7,255,1020,200,811,1020
stim,831,831,0,743508.829,0.983,0.057,-0.065,-0.160,2315,0,164,2431,241,870,29,585,1,0.000,3,0,0.110,0.004,-0.020,-0.040,-0.100,-0.147,-0.088,0.988,-0.002,0.004,0.002,0.000,0.000,0.000,0.000,1,2,0,1,7,255,1020,200,816,1020
stim,847,847,0,743513.829,0.983,0.057,-0.065,-0.160,2317,0,159,2443,243,880,28,585,1,0.000,3,0,0.060,0.004,0.040,0.020,-0.040,-0.146,-0.089,0.988,-0.002,0.004,0.002,0.000,0.000,0.000,0.000,1,2,0,1,7,255,1020,200,821,1020
stim,847,847,0,743518.829,0.983,0.057,-0.065,-0.160,2313,0,166,2444,248,875,27,585,1,0.000,3,0,0.060,0.004,0.040,-0.040,0.020,-0.147,-0.088,0.989,-0.002,0.004,0.002,0.000,0.000,0.000,0.000,1,2,0,1,7,255,1020,200,826,1020
stim,866,866,0,743523.830,0.983,0.057,-0.065,-0.160,2315,0,163,2448,243,878,33,585,1,0.000,3,0,0.060,0.004,0.040,0.020,-0.040,-0.146,-0.089,0.988,0.004,0.002,0.002,0.000,0.000,0.000,0.000,1,2,0,1,7,255,1020,200,831,1020
stim,866,866,0,743528.829,0.983,0.057,-0.065,-0.160,2301,0,160,2443,244,879,33,586,1,0.000,3,0,0.060,0.004,0.040,0.020,-0.040,-0.146,-0.088,0.988,0.000,0.004,0.002,0.000,0.000,0.000,0.000,1,2,0,1,7,255,1020,200,836,1020
stim,866,866,0,743533.829,0.983,0.057,-0.065,-0.160,2301,0,161,2455,239,874,36,583,1,0.000,3,0,0.069,0.004,0.040,-0.040,-0.040,-0.146,-0.089,0.987,0.004,-0.002,-0.004,0.000,0.000,0.000,0.000,1,2,0,1,7,255,1020,200,841,1020
stim,866,866,0,743538.829,0.983,0.057,-0.065,-0.160,2301,0,163,2439,243,875,33,581,1,0.000,3,0,0.110,0.002,0.040,0.020,-0.100,-0.146,-0.089,0.988,0.002,0.000,-0.004,0.000,0.000,0.000,0.000,1,2,0,1,7,255,1020,200,846,1020
stim,866,866,0,743543.829,0.983,0.057,-0.065,-0.160,2299,0,158,2453,249,873,35,588,1,0.000,3,0,0.060,0.012,0.040,-0.040,0.020,-0.146,-0.089,0.987,0.012,-0.002,-0.008,0.000,0.000,0.000,0.000,1,2,0,1,7,255,1020,200,851,1020
stim,866,866,0,743548.829,0.983,0.057,-0.065,-0.160,2299,0,155,2453,237,881,33,583,1,0.000,3,0,0.035,0.004,-0.020,0.020,0.020,-0.146,-0.088,0.988,0.004,0.000,-0.004,0.000,0.000,0.000,0.000,1,2,0,1,7,255,1020,200,856,1020
stim,879,879,0,743553.829,0.983,0.057,-0.065,-0.160,2303,0,155,2451,228,871,27,575,1,0.000,3,0,0.049,0.004,-0.020,0.020,-0.040,-0.147,-0.089,0.987,0.004,-0.002,-0.006,0.000,0.000,0.000,0.000,1,2,0,1,7,255,1020,200,861,1020
stim,879,879,0,743558.829,0.983,0.057,-0.065,-0.160,2315,0,156,2441,239,877,35,585,1,0.000,3,0,0.060,0.003,0.040,-0.040,0.020,-0.146,-0.089,0.988,0.002,0.002,-0.004,0.000,0.000,0.000,0.000,1,2,0,1,7,255,1020,200,866,1020
stim,879,879,0,743563.829,0.983,0.057,-0.065,-0.160,2309,0,157,2432,239,873,34,585,1,0.000,3,0,0.104,0.003,0.100,0.020,0.020,-0.146,-0.087,0.988,0.002,0.002,-0.004,0.000,0.000,0.000,0.000,1,2,0,1,7,255,1020,200,871,1020
stim,879,879,0,743568.829,0.983,0.057,-0.065,-0.160,2321,0,162,2443,236,876,33,574,1,0.000,3,0,0.060,0.003,0.040,0.020,-0.040,-0.148,-0.089,0.988,0.002,0.002,0.000,0.000,0.000,0.000,0.000,1,2,0,1,7,255,1020,200,876,1020
stim,895,895,0,743573.829,0.983,0.057,-0.065,-0.160,2316,1,158,2449,243,871,33,583,1,0.000,3,0,0.049,0.010,0.040,0.020,0.020,-0.146,-0.088,0.989,0.000,0.010,0.000,0.000,0.000,0.000,0.000,1,2,0,1,7,255,1020,200,881,1020
stim,895,895,0,743578.829,0.983,0.057,-0.065,-0.160,2303,0,157,2441,236,877,29,587,1,0.000,3,0,0.060,0.004,0.040,-0.040,0.020,-0.146,-0.088,0.987,0.000,0.004,0.000,0.000,0.000,0.000,0.000,1,2,0,1,7,255,1020,200,886,1020
stim,895,895,0,743583.829,0.983,0.057,-0.065,-0.160,2317,1,157,2431,229,877,29,583,1,0.000,3,0,0.104,0.008,0.100,0.020,0.020,-0.147,-0.088,0.988,0.000,0.008,0.002,0.000,0.000,0.000,0.000,1,2,0,1,7,255,1020,200,891,1020
stim,895,895,0,743588.829,0.983,0.057,-0.065,-0.160,2303,0,159,2455,236,877,30,584,1,0.000,3,0,0.049,0.009,0.040,0.020,0.020,-0.148,-0.087,0.988,-0.004,0.008,0.002,0.000,0.000,0.000,0.000,1,2,0,1,7,255,1020,200,896,1020
stim,911,911,0,743593.829,0.983,0.057,-0.065,-0.160,2315,0,155,2453,237,880,37,583,1,0.000,3,0,0.049,0.009,-0.020,-0.040,0.020,-0.147,-0.088,0.988,-0.004,0.008,0.002,0.000,0.000,0.000,0.000,1,2,0,1,7,255,1020,200,901,1020
stim,911,911,0,743598.829,0.983,0.057,-0.065,-0.160,2319,0,160,2451,243,880,29,585,1,0.000,3,0,0.110,0.009,0.100,-0.040,0.020,-0.147,-0.088,0.988,-0.004,0.008,0.002,0.000,0.000,0.000,0.000,1,2,0,1,7,255,1020,200,906,1020
stim,927,927,0,743603.829,0.983,0.057,-0.065,-0.160,2315,0,159,2438,237,885,30,589,1,0.000,3,0,0.060,0.009,0.040,-0.040,0.020,-0.146,-0.088,0.988,-0.004,0.008,0.002,0.000,0.000,0.000,0.000,1,2,0,1,7,255,1020,200,911,1020
stim,927,927,0,743608.829,0.983,0.057,-0.065,-0.160,2313,0,160,2442,239,874,25,581,1,0.000,3,0,0.060,0.010,0.040,0.020,-0.040,-0.146,-0.089,0.988,0.006,0.008,0.002,0.000,0.000,0.000,0.000,1,2,0,1,7,255,1020,200,916,1020
stim,927,927,0,743613.829,0.983,0.057,-0.065,-0.160,2303,0,156,2431,231,879,29,585,1,0.000,3,0,0.115,0.008,0.040,-0.100,-0.040,-0.146,-0.089,0.987,0.008,-0.002,-0.002,0.000,0.000,0.000,0.000,1,2,0,1,7,255,1020,200,921,1020
stim,959,959,0,743618.829,0.983,0.057,-0.065,-0.160,2325,0,163,2441,243,875,27,589,1,0.000,3,0,0.069,0.008,0.040,-0.040,-0.040,-0.147,-0.089,0.987,0.008,-0.002,-0.008,0.000,0.000,0.000,0.000,1,2,0,1,7,255,1020,200,926,1020
stim,959,959,0,743623.830,0.983,0.057,-0.065,-0.160,2299,0,156,2446,237,872,33,582,1,0.000,3,0,0.069,0.002,0.040,-0.040,-0.040,-0.146,-0.088,0.989,0.000,-0.002,-0.008,0.000,0.000,0.000,0.000,1,2,0,1,7,255,1020,200,931,1020
stim,959,959,0,743628.829,0.983,0.057,-0.065,-0.160,2303,0,160,2455,235,884,29,588,1,0.000,3,0,0.104,0.002,0.100,0.020,0.020,-0.146,-0.089,0.988,0.000,-0.002,0.004,0.000,0.000,0.000,0.000,1,2,0,1,7,255,1020,200,936,1020
stim,959,959,0,743633.829,0.983,0.057,-0.065,-0.160,2299,0,156,2459,235,883,28,583,1,0.000,3,0,0.069,0.012,0.040,-0.040,-0.040,-0.146,-0.087,0.988,0.002,0.012,0.004,0.000,0.000,0.000,0.000,1,2,0,1,7,255,1020,200,941,1020
stim,959,959,0,743638.829,0.983,0.057,-0.065,-0.160,2302,0,165,2439,247,879,33,582,1,0.000,3,0,0.049,0.004,-0.020,-0.040,0.020,-0.146,-0.089,0.988,0.004,0.002,-0.002,0.000,0.000,0.000,0.000,1,2,0,1,7,255,1020,200,946,1020
stim,975,975,0,743643.829,0.983,0.057,-0.065,-0.160,2299,2,163,2443,237,875,27,583,1,0.000,3,0,0.049,0.008,0.040,0.020,0.020,-0.147,-0.088,0.987,0.002,0.008,-0.004,0.000,0.000,0.000,0.000,1,2,0,1,7,255,1020,200,951,1020
stim,975,975,0,743648.829,0.983,0.057,-0.065,-0.160,2317,0,155,2439,230,880,35,585,1,0.000,3,0,0.049,0.008,0.040,0.020,0.020,-0.146,-0.087,0.988,-0.002,0.008,-0.002,0.000,0.000,0.000,0.000,1,2,0,1,7,255,1020,200,956,1020
stim,975,975,0,743653.829,0.983,0.057,-0.065,-0.160,2321,0,157,2453,233,881,33,584,1,0.000,3,0,0.110,0.009,0.100,-0.040,0.020,-0.147,-0.088,0.987,-0.004,0.008,-0.006,0.000,0.000,0.000,0.000,1,2,0,1,7,255,1020,200,961,1020
stim,975,975,0,743658.829,0.983,0.057,-0.065,-0.160,2298,0,163,2451,229,877,30,582,1,0.000,3,0,0.110,0.015,0.100,-0.040,0.020,-0.146,-0.087,0.988,-0.004,0.014,-0.004,0.000,0.000,0.000,0.000,1,2,0,1,7,255,1020,200,966,1020
stim,991,991,0,743663.829,0.983,0.057,-0.065,-0.160,2303,0,155,2449,236,881,31,582,1,0.000,3,0,0.069,0.013,0.040,-0.040,-0.040,-0.145,-0.088,0.989,-0.004,0.012,-0.004,0.000,0.000,0.000,0.000,1,2,0,1,7,255,1020,200,971,1020
stim,991,991,0,743668.829,0.983,0.057,-0.065,-0.160,2317,0,165,2455,217,877,30,579,1,0.000,3,0,0.110,0.013,0.100,0.020,-0.040,-0.146,-0.089,0.988,0.006,0.012,-0.002,0.000,0.000,0.000,0.000,1,2,0,1,7,255,1020,200,976,1020
stim,991,991,0,743673.829,0.983,0.057,-0.065,-0.160,2314,0,163,2440,218,872,29,587,1,0.000,3,0,0.115,0.013,0.100,-0.040,-0.040,-0.146,-0.087,0.988,0.006,0.012,-0.002,0.000,0.000,0.000,0.000,1,2,0,1,7,255,1020,200,981,1020
stim,991,991,0,743678.829,0.983,0.057,-0.065,-0.160,2315,0,160,2431,224,877,29,587,1,0.000,3,0,0.049,0.003,-0.020,0.020,-0.040,-0.146,-0.089,0.987,0.002,0.002,-0.004,0.000,0.000,0.000,0.000,1,2,0,1,7,255,1020,200,986,1020
stim,991,991,0,743683.829,0.983,0.057,-0.065,-0.160,2321,0,159,2442,231,871,29,585,1,0.000,3,0,0.069,0.010,0.040,-0.040,-0.040,-0.146,-0.088,0.988,0.000,0.010,-0.004,0.000,0.000,0.000,0.000,1,2,0,1,7,255,1020,200,991,1020
stim,1007,1007,0,743688.829,0.983,0.057,-0.065,-0.160,2323,0,157,2449,229,876,35,582,1,0.000,3,0,0.049,0.002,-0.020,0.020,-0.040,-0.146,-0.089,0.987,0.000,0.002,-0.006,0.000,0.000,0.000,0.000,1,2,0,1,7,255,1020,200,996,1020
stim,1007,1007,0,743693.829,0.983,0.057,-0.065,-0.160,2307,0,156,2449,231,889,33,581,1,0.000,3,0,0.060,0.010,0.040,0.020,-0.040,-0.147,-0.087,0.988,-0.002,0.010,-0.002,0.000,0.000,0.000,0.000,1,2,0,1,7,255,1020,200,1001,1020
stim,1023,1023,0,743698.829,0.983,0.057,-0.065,-0.160,2312,0,155,2455,230,874,33,585,1,0.000,3,0,0.049,0.004,-0.020,0.020,-0.040,-0.147,-0.089,0.987,-0.004,0.002,-0.006,0.000,0.000,0.000,0.000,1,2,0,1,7,255,1020,200,1006,1020
stim,1023,1023,0,743703.830,0.983,0.057,-0.065,-0.160,2299,0,156,2455,229,872,35,585,1,0.000,3,0,0.060,0.008,-0.020,-0.040,-0.040,-0.147,-0.088,0.987,-0.008,0.002,-0.006,0.000,0.000,0.000,0.000,1,2,0,1,7,255,1020,200,1011,1020
stim,1023,1023,0,743708.829,0.983,0.057,-0.065,-0.160,2313,0,155,2443,230,879,34,585,1,0.000,3,0,0.060,0.006,-0.020,-0.040,-0.040,-0.147,-0.089,0.988,-0.006,-0.002,-0.006,0.000,0.000,0.000,0.000,1,2,0,1,7,255,1020,200,1016,1020
stim,1023,1023,1,743713.829,0.983,0.057,-0.065,-0.160,2299,0,163,2452,231,875,33,584,1,0.000,3,0,0.035,0.006,-0.020,0.020,0.020,-0.146,-0.088,0.987,-0.006,0.002,-0.006,0.000,0.000,0.000,0.000,1,2,1,1,7,255,1020,200,1,1020
stim,1055,1055,1,743718.829,0.983,0.057,-0.065,-0.160,2302,0,165,2461,235,877,28,587,1,0.000,3,0,0.049,0.004,-0.020,0.020,-0.040,-0.146,-0.088,0.988,-0.002,0.004,-0.002,0.000,0.000,0.000,0.000,1,2,1,1,7,255,1020,200,6,1020
stim,1055,1055,1,743723.829,0.983,0.057,-0.065,-0.160,2309,0,164,2449,227,873,26,579,1,0.000,3,0,0.049,0.010,0.040,0.020,0.020,-0.146,-0.088,0.989,-0.002,0.010,-0.002,0.000,0.000,0.000,0.000,1,2,1,1,7,255,1020,200,11,1020
stim,1055,1055,1,743728.829,0.983,0.057,-0.065,-0.160,2301,0,163,2449,226,877,29,582,1,0.000,3,0,0.035,0.010,-0.020,0.020,0.020,-0.146,-0.088,0.988,0.002,0.010,-0.002,0.000,0.000,0.000,0.000,1,2,1,1,7,255,1020,200,16,1020
stim,1055,1055,1,743733.829,0.983,0.057,-0.065,-0.160,2301,0,156,2439,233,876,31,582,1,0.000,3,0,0.049,0.014,0.040,0.020,0.020,-0.146,-0.089,0.988,0.010,0.010,0.002,0.000,0.000,0.000,0.000,1,2,1,1,7,255,1020,200,21,1020
stim,1055,1055,1,743738.830,0.983,0.057,-0.065,-0.160,2314,0,156,2431,231,871,25,583,1,0.000,3,0,0.098,0.002,0.040,-0.040,0.080,-0.147,-0.089,0.988,0.002,0.000,0.002,0.000,0.000,0.000,0.000,1,2,1,1,7,255,1020,200,26,1020
stim,1055,1055,1,743743.829,0.983,0.057,-0.065,-0.160,2321,1,156,2453,229,879,26,581,1,0.000,3,0,0.110,0.006,0.100,-0.040,0.020,-0.148,-0.087,0.988,-0.006,0.000,0.004,0.000,0.000,0.000,0.000,1,2,1,1,7,255,1020,200,31,1020
stim,1071,1071,1,743748.829,0.983,0.057,-0.065,-0.160,2309,0,157,2442,227,879,29,582,1,0.000,3,0,0.341,0.013,-0.020,0.020,-0.340,-0.146,-0.088,0.988,-0.006,0.012,0.004,0.000,0.000,0.000,0.000,1,2,1,1,7,255,1020,200,36,1020
stim,1071,1071,1,743753.829,0.983,0.057,-0.065,-0.160,2313,0,155,2453,224,876,29,584,1,0.000,3,0,0.402,0.014,0.040,0.020,-0.400,-0.143,-0.091,0.986,0.008,0.012,0.000,0.000,0.000,0.000,0.000,1,2,1,1,7,255,1020,200,41,1020
stim,1088,1088,1,743758.829,0.983,0.057,-0.065,-0.160,2303,0,159,2439,221,883,27,579,1,0.000,3,0,0.929,0.023,0.280,-0.100,0.880,-0.145,-0.092,0.985,0.022,-0.008,-0.024,0.000,0.000,0.000,0.000,1,2,1,1,7,255,1020,200,46,1020
stim,1088,1088,1,743763.829,0.983,0.057,-0.065,-0.160,2301,0,156,2439,232,873,30,582,1,0.000,3,0,1.204,0.023,0.220,-0.100,1.180,-0.153,-0.083,0.994,0.022,-0.008,-0.024,0.000,0.000,0.000,0.000,1,2,1,1,7,255,1020,200,51,1020
stim,1088,1088,1,743768.829,0.983,0.057,-0.065,-0.160,2312,0,160,2445,229,877,26,583,1,0.000,3,0,2.135,0.076,-0.460,0.320,-2.060,-0.154,-0.083,0.989,-0.068,0.034,0.018,0.000,0.000,0.000,0.000,1,2,1,1,7,255,1020,200,56,1020
stim,1088,1088,1,743773.829,0.983,0.057,-0.065,-0.160,2312,0,156,2449,225,882,27,583,1,0.000,3,0,0.569,0.076,0.400,-0.340,-0.220,-0.138,-0.093,0.979,-0.068,0.034,0.018,0.000,0.000,0.000,0.000,1,2,1,1,7,255,1020,200,61,1020
stim,1088,1088,1,743778.829,0.983,0.057,-0.065,-0.160,2316,0,154,2441,227,875,30,582,1,0.000,3,0,0.810,0.092,0.400,0.080,0.700,-0.132,-0.088,0.999,0.086,0.034,0.018,0.000,0.000,0.000,0.000,1,2,1,1,7,255,1020,200,66,1020
stim,1088,1088,1,743783.829,0.983,0.057,-0.065,-0.160,2313,0,156,2445,229,879,30,581,1,0.000,3,0,1.042,0.089,-0.520,0.200,0.880,-0.167,-0.099,0.979,0.086,-0.024,-0.048,0.000,0.000,0.000,0.000,1,2,1,1,7,255,1020,200,71,1020
stim,1104,1104,1,743788.829,0.983,0.057,-0.065,-0.160,2300,0,160,2445,218,879,30,585,1,0.000,3,0,0.703,0.079,0.220,-0.660,-0.100,-0.135,-0.066,0.998,0.046,0.064,0.056,0.000,0.000,0.000,0.000,1,2,1,1,7,255,1020,200,76,1020
stim,1104,1104,1,743793.829,0.983,0.057,-0.065,-0.160,2312,0,159,2455,243,881,27,587,1,0.000,3,0,1.189,0.229,0.280,1.060,-0.460,-0.167,-0.104,0.969,-0.164,-0.160,-0.048,0.000,0.000,0.000,0.000,1,2,1,1,7,255,1020,200,81,1020
stim,1119,1119,1,743798.829,0.983,0.057,-0.065,-0.160,2303,0,159,2429,221,876,26,581,1,0.000,3,0,2.121,0.130,-0.340,-0.960,-1.860,-0.121,-0.087,1.014,0.046,0.122,0.056,0.000,0.000,0.000,0.000,1,2,1,1,7,255,1020,200,86,1020
stim,1119,1119,1,743803.829,0.983,0.057,-0.065,-0.160,2313,0,161,2447,213,880,35,581,1,0.000,3,0,3.580,0.132,0.940,0.320,3.440,-0.151,-0.076,0.954,-0.120,0.056,-0.142,0.000,0.000,0.000,0.000,1,2,1,1,7,255,1020,200,91,1020
stim,1119,1119,1,743808.829,0.983,0.057,-0.065,-0.160,2315,0,163,2453,237,883,29,586,1,0.000,3,0,3.014,0.057,-0.940,1.060,-2.660,-0.163,-0.121,1.024,-0.008,0.056,0.218,0.000,0.000,0.000,0.000,1,2,1,1,7,255,1020,200,96,1020
stim,1119,1119,1,743813.829,0.983,0.057,-0.064,-0.160,2315,0,158,2452,221,873,30,585,1,0.000,3,0,3.131,0.057,-0.140,-2.920,1.120,-0.126,-0.045,0.969,-0.008,0.056,-0.248,0.000,0.000,0.000,0.000,1,2,1,1,7,255,1020,200,101,1020
stim,1151,1151,1,743818.829,0.983,0.057,-0.065,-0.160,2303,0,158,2443,213,884,35,581,1,0.000,3,0,4.268,0.202,1.560,3.860,0.940,-0.155,-0.106,0.976,-0.008,-0.202,-0.090,0.000,0.000,0.000,0.000,1,2,1,1,7,255,1020,200,106,1020
stim,1151,1151,1,743823.829,0.983,0.057,-0.065,-0.160,2303,0,155,2443,263,883,26,582,1,0.000,3,0,3.827,0.174,-1.620,-2.540,-2.360,-0.157,-0.109,1.024,0.010,-0.174,-0.090,0.000,0.000,0.000,0.000,1,2,1,1,7,255,1020,200,111,1020
stim,1151,1151,1,743828.829,0.983,0.057,-0.065,-0.159,2313,0,163,2431,343,872,30,583,1,0.000,3,0,0.522,0.174,0.400,-0.100,0.320,-0.134,-0.063,0.956,0.000,-0.174,-0.090,0.000,0.000,0.000,0.000,1,2,1,1,7,255,1020,200,116,1020
stim,1151,1151,1,743833.829,0.983,0.057,-0.065,-0.160,2313,0,157,2445,255,877,27,582,1,0.000,3,0,2.163,0.039,1.140,1.300,1.300,-0.142,-0.087,0.998,0.010,0.038,0.094,0.000,0.000,0.000,0.000,1,2,1,1,7,255,1020,200,121,1020
stim,1151,1151,1,743838.830,0.983,0.057,-0.065,-0.160,2312,0,153,2430,163,872,27,582,1,0.000,3,0,1.298,0.038,-0.700,-0.840,-0.700,-0.155,-0.096,1.000,0.000,0.038,0.094,0.000,0.000,0.000,0.000,1,2,1,1,7,255,1020,200,126,1020
stim,1151,1151,1,743843.829,0.983,0.057,-0.065,-0.159,2303,0,153,2451,255,877,33,581,1,0.000,3,0,0.779,0.038,-0.700,-0.040,-0.340,-0.143,-0.083,0.977,0.006,0.038,0.094,0.000,0.000,0.000,0.000,1,2,1,1,7,255,1020,200,131,1020
stim,1167,1167,1,743848.829,0.983,0.057,-0.065,-0.159,2312,0,155,2432,498,879,27,576,1,0.000,3,0,0.753,0.004,0.460,0.380,0.460,-0.146,-0.087,0.983,0.002,0.004,-0.042,0.000,0.000,0.000,0.000,1,2,1,1,7,255,1020,200,136,1020
stim,1167,1167,1,743853.829,0.983,0.057,-0.065,-0.159,2275,0,153,2430,580,871,31,574,1,0.000,3,0,0.700,0.004,0.640,-0.040,-0.280,-0.152,-0.096,1.000,0.002,0.004,-0.042,0.000,0.000,0.000,0.000,1,2,1,1,7,255,1020,200,141,1020
stim,1184,1184,1,743858.829,0.983,0.057,-0.065,-0.159,2311,0,156,2445,522,875,30,581,1,0.000,3,0,0.759,0.002,-0.080,-0.400,-0.640,-0.146,-0.089,0.993,0.002,0.000,0.048,0.000,0.000,0.000,0.000,1,2,1,1,7,255,1020,200,146,1020
stim,1184,1184,1,743863.829,0.983,0.056,-0.065,-0.159,2311,0,153,2447,459,875,30,583,1,0.000,3,0,0.536,0.008,-0.520,0.080,-0.100,-0.139,-0.082,0.981,0.008,0.000,0.048,0.000,0.000,0.000,0.000,1,2,1,1,7,255,1020,200,151,1020
stim,1201,1201,1,743868.829,0.983,0.056,-0.065,-0.159,2313,0,151,2441,328,877,27,575,1,0.000,3,0,0.587,0.080,-0.400,0.200,0.380,-0.140,-0.081,0.982,0.030,0.074,-0.064,0.000,0.000,0.000,0.000,1,2,1,1,7,255,1020,200,156,1020
stim,1201,1201,1,743873.829,0.983,0.056,-0.065,-0.159,2327,0,154,2445,361,875,27,582,1,0.000,3,0,0.358,0.080,-0.080,0.140,0.320,-0.147,-0.087,0.988,0.030,0.074,-0.064,0.000,0.000,0.000,0.000,1,2,1,1,7,255,1020,200,161,1020
stim,1201,1201,1,743878.829,0.983,0.056,-0.065,-0.159,2302,0,155,2432,546,872,30,587,1,0.000,3,0,0.227,0.008,0.220,-0.040,-0.040,-0.152,-0.094,0.991,-0.008,0.002,0.002,0.000,0.000,0.000,0.000,1,2,1,1,7,255,1020,200,166,1020
stim,1201,1201,1,743883.829,0.983,0.056,-0.065,-0.159,2314,0,151,2453,595,877,26,581,1,0.000,3,0,0.408,0.077,0.160,-0.160,-0.340,-0.152,-0.094,0.990,-0.026,-0.072,0.040,0.000,0.000,0.000,0.000,1,2,1,1,7,255,1020,200,171,1020
stim,1201,1201,1,743888.829,0.983,0.056,-0.065,-0.159,2309,0,150,2440,699,875,26,576,1,0.000,3,0,0.414,0.077,0.040,-0.100,-0.400,-0.148,-0.092,0.988,-0.026,-0.072,0.040,0.000,0.000,0.000,0.000,1,2,1,1,7,255,1020,200,176,1020
stim,1201,1201,1,743893.829,0.983,0.056,-0.065,-0.159,2299,0,151,2431,606,871,33,579,1,0.000,3,0,0.284,0.038,-0.020,-0.040,-0.280,-0.145,-0.089,0.988,0.000,-0.038,0.012,0.000,0.000,0.000,0.000,1,2,1,1,7,255,1020,200,181,1020
stim,1201,1201,1,743898.829,0.983,0.056,-0.065,-0.159,2301,0,149,2443,509,871,28,571,1,0.000,3,0,0.162,0.006,-0.020,0.020,-0.160,-0.146,-0.087,0.987,0.002,-0.006,0.000,0.000,0.000,0.000,0.000,1,2,1,1,7,255,1020,200,186,1020
stim,1215,1215,1,743903.829,0.983,0.056,-0.065,-0.159,2301,0,153,2427,403,872,29,579,1,0.000,3,0,0.110,0.003,0.040,0.020,-0.100,-0.146,-0.088,0.987,0.002,0.002,-0.004,0.000,0.000,0.000,0.000,1,2,1,1,7,255,1020,200,191,1020
stim,1215,1215,1,743908.829,0.983,0.056,-0.065,-0.159,2313,0,152,2431,473,870,26,575,1,0.000,3,0,0.130,0.003,-0.080,0.020,-0.100,-0.146,-0.088,0.989,0.002,0.002,-0.004,0.000,0.000,0.000,0.000,1,2,1,1,7,255,1020,200,196,1020
stim,1247,1247,0,743913.829,0.983,0.056,-0.065,-0.159,2297,0,150,2426,431,873,33,579,1,0.000,3,0,0.085,0.010,-0.080,0.020,0.020,-0.146,-0.088,0.989,0.010,0.002,0.014,0.000,0.000,0.000,0.000,1,2,0,1,7,255,1020,200,201,1020
stim,1247,1247,0,743918.829,0.983,0.056,-0.065,-0.159,2309,0,149,2443,455,877,31,573,1,0.000,3,0,0.049,0.012,0.040,0.020,0.020,-0.145,-0.086,0.988,0.010,0.006,0.014,0.000,0.000,0.000,0.000,1,2,0,1,7,255,1020,200,206,1020
stim,1247,1247,0,743923.830,0.983,0.056,-0.065,-0.159,2298,0,152,2456,416,875,33,574,1,0.000,3,0,0.049,0.022,0.040,0.020,0.020,-0.143,-0.087,0.987,0.010,0.020,-0.002,0.000,0.000,0.000,0.000,1,2,0,1,7,255,1020,200,211,1020
stim,1247,1247,0,743928.829,0.983,0.056,-0.065,-0.159,2303,0,154,2446,448,879,35,574,1,0.000,3,0,0.110,0.022,0.040,0.020,-0.100,-0.146,-0.086,0.987,0.008,0.020,-0.010,0.000,0.000,0.000,0.000,1,2,0,1,7,255,1020,200,216,1020
stim,1247,1247,0,743933.829,0.983,0.056,-0.065,-0.159,2313,0,163,2453,554,876,25,581,1,0.000,3,0,0.110,0.016,0.040,0.020,-0.100,-0.146,-0.087,0.986,0.004,0.016,-0.010,0.000,0.000,0.000,0.000,1,2,0,1,7,255,1020,200,221,1020
stim,1247,1247,0,743938.829,0.983,0.056,-0.065,-0.159,2296,0,155,2446,523,877,31,583,1,0.000,3,0,0.085,0.009,-0.020,0.080,0.020,-0.146,-0.088,0.987,0.004,0.008,-0.010,0.000,0.000,0.000,0.000,1,2,0,1,7,255,1020,200,226,1020
stim,1279,1279,0,743943.829,0.983,0.056,-0.065,-0.159,2296,0,159,2443,635,883,25,574,1,0.000,3,0,0.216,0.010,-0.020,0.080,0.200,-0.146,-0.090,0.988,0.010,-0.002,-0.008,0.000,0.000,0.000,0.000,1,2,0,1,7,255,1020,200,231,1020
stim,1279,1279,0,743948.829,0.983,0.056,-0.065,-0.159,2302,0,155,2455,603,875,27,583,1,0.000,3,0,0.173,0.021,0.100,0.020,0.140,-0.151,-0.091,0.989,0.010,-0.018,0.002,0.000,0.000,0.000,0.000,1,2,0,1,7,255,1020,200,236,1020
stim,1279,1279,0,743953.829,0.983,0.057,-0.065,-0.159,2300,0,158,2437,587,879,29,585,1,0.000,3,0,0.323,0.047,0.160,0.020,-0.280,-0.154,-0.098,0.991,-0.030,-0.036,0.020,0.000,0.000,0.000,0.000,1,2,0,1,7,255,1020,200,241,1020
stim,1279,1279,0,743958.829,0.983,0.057,-0.065,-0.159,2299,0,155,2441,571,872,25,587,1,0.000,3,0,0.869,0.062,0.040,-0.220,-0.840,-0.151,-0.093,0.990,-0.030,-0.054,0.036,0.000,0.000,0.000,0.000,1,2,0,1,7,255,1020,200,246,1020
stim,1279,1279,0,743963.829,0.983,0.056,-0.065,-0.159,2317,0,153,2451,423,881,31,583,1,0.000,3,0,0.414,0.058,-0.100,-0.040,-0.400,-0.139,-0.084,0.987,-0.020,-0.054,0.036,0.000,0.000,0.000,0.000,1,2,0,1,7,255,1020,200,251,1020
stim,1279,1279,0,743968.829,0.983,0.056,-0.065,-0.159,2313,0,153,2444,340,874,33,582,1,0.000,3,0,0.770,0.079,-0.340,0.260,0.640,-0.135,-0.077,0.982,0.056,0.056,-0.022,0.000,0.000,0.000,0.000,1,2,0,1,7,255,1020,200,256,1020
stim,1298,1298,0,743973.829,0.983,0.056,-0.065,-0.159,2317,0,151,2443,339,868,27,581,1,0.000,3,0,0.872,0.079,-0.340,0.260,0.760,-0.149,-0.088,0.985,0.056,0.056,-0.022,0.000,0.000,0.000,0.000,1,2,0,1,7,255,1020,200,261,1020
stim,1298,1298,0,743978.829,0.983,0.056,-0.065,-0.159,2300,0,156,2443,315,871,31,581,1,0.000,3,0,0.738,0.032,0.400,-0.220,-0.580,-0.153,-0.094,0.993,-0.030,-0.012,-0.022,0.000,0.000,0.000,0.000,1,2,0,1,7,255,1020,200,266,1020
stim,1298,1298,0,743983.829,0.983,0.056,-0.065,-0.159,2315,0,158,2452,311,883,29,583,1,0.000,3,0,1.045,0.032,0.940,-0.400,-0.220,-0.138,-0.082,0.990,-0.030,-0.012,0.008,0.000,0.000,0.000,0.000,1,2,0,1,7,255,1020,200,271,1020
stim,1298,1298,0,743988.829,0.983,0.056,-0.065,-0.159,2311,0,155,2431,327,875,27,583,1,0.000,3,0,1.470,0.019,-0.400,0.680,1.240,-0.146,-0.089,0.984,0.010,-0.016,0.008,0.000,0.000,0.000,0.000,1,2,0,1,7,255,1020,200,276,1020
stim,1313,1313,0,743993.829,0.983,0.056,-0.065,-0.159,2317,0,154,2445,344,874,24,582,1,0.000,3,0,1.158,0.019,-0.940,-0.220,-0.640,-0.163,-0.104,0.993,0.010,-0.016,0.008,0.000,0.000,0.000,0.000,1,2,0,1,7,255,1020,200,281,1020
stim,1313,1313,0,743998.829,0.984,0.056,-0.065,-0.159,2300,0,156,2443,337,877,26,587,1,0.000,3,0,1.873,0.019,1.140,-1.080,-1.020,-0.136,-0.076,0.986,0.010,-0.016,-0.036,0.000,0.000,0.000,0.000,1,2,0,1,7,255,1020,200,286,1020
stim,1327,1327,0,744003.829,0.983,0.056,-0.065,-0.159,2300,0,157,2439,313,869,30,581,1,0.000,3,0,2.126,0.078,0.520,1.300,1.600,-0.138,-0.084,0.980,0.058,0.052,-0.044,0.000,0.000,0.000,0.000,1,2,0,1,7,255,1020,200,291,1020
stim,1327,1327,0,744008.829,0.983,0.056,-0.065,-0.159,2315,0,159,2449,335,876,29,584,1,0.000,3,0,1.440,0.078,-1.300,-0.220,-0.580,-0.156,-0.098,0.999,0.058,0.052,-0.044,0.000,0.000,0.000,0.000,1,2,0,1,7,255,1020,200,296,1020
stim,1359,1359,0,744013.829,0.983,0.056,-0.065,-0.159,2311,0,158,2451,308,871,27,586,1,0.000,3,0,1.759,0.053,1.260,-1.200,0.260,-0.142,-0.080,0.980,0.012,0.052,-0.090,0.000,0.000,0.000,0.000,1,2,0,1,7,255,1020,200,301,1020
stim,1359,1359,0,744018.829,0.983,0.056,-0.065,-0.159,2301,0,157,2451,303,876,25,585,1,0.000,3,0,1.747,0.107,-0.160,1.660,-0.520,-0.156,-0.104,0.991,-0.026,-0.104,0.060,0.000,0.000,0.000,0.000,1,2,0,1,7,255,1020,200,306,1020
stim,1359,1359,0,744023.829,0.984,0.056,-0.065,-0.159,2310,0,163,2450,316,883,28,584,1,0.000,3,0,2.091,0.085,-0.520,-2.000,0.320,-0.126,-0.063,0.996,0.012,0.084,0.024,0.000,0.000,0.000,0.000,1,2,0,1,7,255,1020,200,311,1020
stim,1359,1359,0,744028.829,0.983,0.056,-0.065,-0.159,2313,0,155,2458,316,875,35,585,1,0.000,3,0,2.393,0.174,1.080,1.780,1.180,-0.166,-0.105,0.964,-0.026,-0.172,0.024,0.000,0.000,0.000,0.000,1,2,0,1,7,255,1020,200,316,1020
stim,1359,1359,0,744033.829,0.984,0.056,-0.065,-0.159,2311,0,160,2443,311,876,28,587,1,0.000,3,0,2.845,0.141,-0.880,-1.080,-2.480,-0.138,-0.087,1.025,0.116,0.080,0.024,0.000,0.000,0.000,0.000,1,2,0,1,7,255,1020,200,321,1020
stim,1359,1359,0,744038.829,0.983,0.056,-0.065,-0.159,2317,0,162,2449,298,877,33,576,1,0.000,3,0,3.427,0.084,0.940,-0.480,3.260,-0.140,-0.074,0.949,-0.024,0.080,-0.188,0.000,0.000,0.000,0.000,1,2,0,1,7,255,1020,200,326,1020
stim,1375,1375,0,744043.829,0.984,0.056,-0.065,-0.159,2311,0,160,2447,308,877,27,589,1,0.000,3,0,3.579,0.084,-0.580,2.100,-2.840,-0.162,-0.105,1.017,-0.024,0.080,0.316,0.000,0.000,0.000,0.000,1,2,0,1,7,255,1020,200,331,1020
stim,1375,1375,0,744048.829,0.984,0.056,-0.065,-0.159,2312,0,167,2447,317,872,31,583,1,0.000,3,0,3.936,0.101,0.640,-3.100,2.340,-0.128,-0.075,0.978,-0.024,0.098,-0.138,0.000,0.000,0.000,0.000,1,2,0,1,7,255,1020,200,336,1020
stim,1375,1375,0,744053.829,0.984,0.056,-0.065,-0.159,2328,0,157,2455,314,885,30,588,1,0.000,3,0,3.584,0.123,-0.400,3.140,-1.680,-0.162,-0.094,0.982,-0.054,-0.110,-0.030,0.000,0.000,0.000,0.000,1,2,0,1,7,255,1020,200,341,1020
stim,1375,1375,0,744058.829,0.984,0.056,-0.065,-0.159,2325,0,153,2443,314,879,33,582,1,0.000,3,0,2.824,0.126,0.520,-2.420,1.360,-0.136,-0.088,1.004,0.114,0.054,-0.030,0.000,0.000,0.000,0.000,1,2,0,1,7,255,1020,200,346,1020
stim,1391,1391,0,744063.829,0.984,0.056,-0.065,-0.159,2315,0,160,2432,285,883,28,584,1,0.000,3,0,1.547,0.080,-0.280,1.180,-0.960,-0.152,-0.083,0.974,-0.080,0.006,-0.030,0.000,0.000,0.000,0.000,1,2,0,1,7,255,1020,200,351,1020
stim,1391,1391,0,744068.829,0.984,0.056,-0.065,-0.159,2313,0,160,2447,299,871,24,586,1,0.000,3,0,0.874,0.046,0.400,-0.160,0.760,-0.145,-0.094,0.999,0.046,0.006,0.110,0.000,0.000,0.000,0.000,1,2,0,1,7,255,1020,200,356,1020
stim,1391,1391,0,744073.829,0.984,0.056,-0.065,-0.159,2317,0,156,2440,289,877,33,583,1,0.000,3,0,0.844,0.010,-0.280,-0.720,-0.340,-0.146,-0.084,0.985,-0.008,0.006,-0.034,0.000,0.000,0.000,0.000,1,2,0,1,7,255,1020,200,361,1020
stim,1391,1391,0,744078.829,0.984,0.056,-0.065,-0.159,2315,0,159,2443,295,876,27,581,1,0.000,3,0,1.110,0.008,0.460,1.000,0.140,-0.149,-0.087,0.987,-0.008,-0.002,-0.008,0.000,0.000,0.000,0.000,1,2,0,1,7,255,1020,200,366,1020
stim,1391,1391,0,744083.829,0.984,0.056,-0.065,-0.159,2313,0,153,2441,295,884,30,585,1,0.000,3,0,1.308,0.008,-0.520,-1.200,-0.040,-0.146,-0.093,0.991,-0.008,-0.002,-0.008,0.000,0.000,0.000,0.000,1,2,0,1,7,255,1020,200,371,1020
stim,1408,1408,0,744088.829,0.984,0.056,-0.065,-0.159,2303,0,163,2457,307,876,27,585,1,0.000,3,0,1.247,0.018,0.880,0.880,0.080,-0.142,-0.081,0.985,0.018,-0.002,-0.008,0.000,0.000,0.000,0.000,1,2,0,1,7,255,1020,200,376,1020
stim,1408,1408,0,744093.830,0.984,0.056,-0.065,-0.159,2327,0,156,2445,287,872,29,583,1,0.000,3,0,1.066,0.044,-0.880,-0.600,-0.040,-0.154,-0.093,0.991,0.018,-0.040,0.030,0.000,0.000,0.000,0.000,1,2,0,1,7,255,1020,200,381,1020
stim,1423,1423,0,744098.829,0.984,0.056,-0.065,-0.159,2304,0,156,2453,295,877,30,589,1,0.000,3,0,0.897,0.033,0.880,0.140,-0.100,-0.135,-0.095,0.988,0.018,-0.028,-0.006,0.000,0.000,0.000,0.000,1,2,0,1,7,255,1020,200,386,1020
stim,1423,1423,0,744103.829,0.984,0.056,-0.065,-0.159,2330,0,154,2457,285,883,33,589,1,0.000,3,0,0.516,0.057,-0.340,0.080,0.380,-0.155,-0.070,0.986,-0.050,-0.028,-0.006,0.000,0.000,0.000,0.000,1,2,0,1,7,255,1020,200,391,1020
stim,1423,1423,0,744108.829,0.984,0.056,-0.065,-0.159,2314,0,160,2425,291,876,29,584,1,0.000,3,0,0.707,0.106,-0.220,-0.340,-0.580,-0.143,-0.106,0.993,0.102,-0.028,-0.006,0.000,0.000,0.000,0.000,1,2,0,1,7,255,1020,200,396,1020
stim,1423,1423,0,744113.829,0.984,0.056,-0.065,-0.159,2304,0,159,2432,296,872,28,591,1,0.000,3,0,0.725,0.078,0.460,0.320,0.460,-0.142,-0.081,0.984,0.016,0.076,-0.024,0.000,0.000,0.000,0.000,1,2,0,1,7,255,1020,200,401,1020
stim,1455,1455,0,744118.829,0.984,0.056,-0.065,-0.159,2297,0,163,2440,289,876,28,581,1,0.000,3,0,0.365,0.078,-0.220,-0.280,0.080,-0.154,-0.077,0.991,0.016,0.076,0.032,0.000,0.000,0.000,0.000,1,2,0,1,7,255,1020,200,406,1020
stim,1455,1455,0,744123.830,0.984,0.056,-0.065,-0.159,2299,0,155,2457,295,877,30,585,1,0.000,3,0,0.539,0.078,-0.020,0.140,-0.520,-0.141,-0.107,0.991,0.016,0.076,0.032,0.000,0.000,0.000,0.000,1,2,0,1,7,255,1020,200,411,1020
stim,1455,1455,0,744128.829,0.984,0.056,-0.065,-0.159,2301,0,157,2441,291,885,31,584,1,0.000,3,0,0.367,0.070,-0.160,0.080,0.320,-0.146,-0.080,0.982,-0.022,0.066,0.032,0.000,0.000,0.000,0.000,1,2,0,1,7,255,1020,200,416,1020
stim,1455,1455,0,744133.829,0.984,0.056,-0.065,-0.159,2315,0,165,2445,284,875,35,583,1,0.000,3,0,0.323,0.064,0.280,-0.160,0.020,-0.149,-0.081,0.991,-0.022,0.060,0.024,0.000,0.000,0.000,0.000,1,2,0,1,7,255,1020,200,421,1020
stim,1455,1455,0,744138.829,0.984,0.056,-0.065,-0.159,2313,0,155,2453,288,875,39,587,1,0.000,3,0,0.190,0.064,0.100,0.020,-0.160,-0.144,-0.100,0.993,-0.022,0.060,0.024,0.000,0.000,0.000,0.000,1,2,0,1,7,255,1020,200,426,1020
stim,1455,1455,0,744143.829,0.984,0.056,-0.065,-0.159,2303,0,160,2443,287,877,29,589,1,0.000,3,0,0.581,0.016,-0.580,0.020,0.020,-0.148,-0.087,0.984,-0.016,-0.004,0.024,0.000,0.000,0.000,0.000,1,2,0,1,7,255,1020,200,431,1020
stim,1471,1471,0,744148.829,0.984,0.056,-0.065,-0.159,2315,0,155,2447,295,879,29,589,1,0.000,3,0,0.407,0.016,0.340,-0.040,-0.220,-0.147,-0.077,0.985,-0.016,-0.004,-0.038,0.000,0.000,0.000,0.000,1,2,0,1,7,255,1020,200,436,1020
stim,1471,1471,0,744153.829,0.984,0.056,-0.065,-0.159,2315,0,159,2444,279,872,28,591,1,0.000,3,0,0.477,0.016,0.460,-0.100,0.080,-0.143,-0.094,0.993,-0.016,-0.004,-0.038,0.000,0.000,0.000,0.000,1,2,0,1,7,255,1020,200,441,1020
stim,1471,1471,0,744158.829,0.984,0.056,-0.065,-0.159,2312,0,165,2445,287,880,34,583,1,0.000,3,0,0.788,0.050,-0.640,0.020,0.460,-0.147,-0.096,0.990,0.028,-0.042,0.030,0.000,0.000,0.000,0.000,1,2,0,1,7,255,1020,200,446,1020
stim,1471,1471,0,744163.829,0.984,0.056,-0.065,-0.159,2315,0,160,2431,291,877,28,583,1,0.000,3,0,0.516,0.050,-0.220,0.080,-0.460,-0.152,-0.075,0.982,0.028,-0.042,0.030,0.000,0.000,0.000,0.000,1,2,0,1,7,255,1020,200,451,1020
stim,1487,1487,0,744168.829,0.984,0.056,-0.065,-0.159,2311,0,157,2449,289,875,27,589,1,0.000,3,0,1.061,0.037,0.640,-0.100,-0.840,-0.142,-0.086,0.988,0.028,0.024,-0.010,0.000,0.000,0.000,0.000,1,2,0,1,7,255,1020,200,456,1020
stim,1487,1487,0,744173.829,0.984,0.056,-0.065,-0.159,2316,0,159,2431,283,877,27,589,1,0.000,3,0,0.582,0.048,-0.020,-0.040,0.580,-0.138,-0.104,0.994,0.042,0.024,-0.010,0.000,0.000,0.000,0.000,1,2,0,1,7,255,1020,200,461,1020
stim,1506,1506,0,744178.829,0.984,0.056,-0.065,-0.159,2316,0,154,2457,285,878,33,584,1,0.000,3,0,1.181,0.043,-0.520,0.020,1.060,-0.152,-0.087,0.985,0.042,-0.010,-0.010,0.000,0.000,0.000,0.000,1,2,0,1,7,255,1020,200,466,1020
stim,1506,1506,0,744183.829,0.984,0.056,-0.065,-0.159,2317,0,161,2443,281,877,31,585,1,0.000,3,0,0.872,0.053,0.220,0.080,-0.840,-0.155,-0.071,0.984,-0.052,-0.010,-0.018,0.000,0.000,0.000,0.000,1,2,0,1,7,255,1020,200,471,1020
stim,1506,1506,0,744188.829,0.984,0.056,-0.065,-0.159,2304,0,159,2431,283,879,27,587,1,0.000,3,0,1.721,0.053,0.580,0.020,-1.620,-0.140,-0.091,0.992,-0.052,-0.010,-0.018,0.000,0.000,0.000,0.000,1,2,0,1,7,255,1020,200,476,1020
stim,1506,1506,0,744193.829,0.984,0.056,-0.065,-0.159,2322,2,159,2460,288,878,29,587,1,0.000,3,0,0.657,0.079,-0.400,-0.040,0.520,-0.132,-0.108,0.990,0.078,-0.010,0.016,0.000,0.000,0.000,0.000,1,2,0,1,7,255,1020,200,481,1020
stim,1520,1520,0,744198.829,0.984,0.056,-0.065,-0.159,2314,0,159,2445,295,881,28,589,1,0.000,3,0,2.083,0.084,-0.640,-0.100,1.980,-0.150,-0.089,0.981,0.078,-0.030,0.016,0.000,0.000,0.000,0.000,1,2,0,1,7,255,1020,200,486,1020
stim,1520,1520,0,744203.829,0.984,0.056,-0.065,-0.159,2315,0,163,2451,291,873,28,588,1,0.000,3,0,0.481,0.045,0.460,0.020,0.140,-0.163,-0.073,0.985,-0.034,-0.030,-0.018,0.000,0.000,0.000,0.000,1,2,0,1,7,255,1020,200,491,1020
stim,1551,1551,0,744208.829,0.984,0.056,-0.065,-0.159,2326,0,161,2445,293,877,30,584,1,0.000,3,0,2.391,0.045,0.640,0.140,-2.300,-0.149,-0.084,0.993,-0.034,0.030,-0.018,0.000,0.000,0.000,0.000,1,2,0,1,7,255,1020,200,496,1020
stim,1551,1551,0,744213.829,0.984,0.056,-0.065,-0.159,2311,0,161,2457,293,883,33,585,1,0.000,3,0,1.392,0.037,-0.160,0.080,-1.380,-0.130,-0.097,0.992,-0.022,0.030,0.026,0.000,0.000,0.000,0.000,1,2,0,1,7,255,1020,200,501,1020
stim,1551,1551,0,744218.829,0.984,0.056,-0.065,-0.159,2317,0,162,2430,291,877,26,585,1,0.000,3,0,1.749,0.128,-0.460,-0.160,1.680,-0.135,-0.095,0.985,0.124,-0.030,0.026,0.000,0.000,0.000,0.000,1,2,0,1,7,255,1020,200,506,1020
stim,1551,1551,0,744223.829,0.984,0.056,-0.065,-0.159,2323,2,163,2439,281,876,31,585,1,0.000,3,0,2.361,0.128,-0.220,-0.220,2.340,-0.157,-0.086,0.985,0.124,-0.030,-0.012,0.000,0.000,0.000,0.000,1,2,0,1,7,255,1020,200,511,1020
stim,1551,1551,0,744228.829,0.984,0.056,-0.065,-0.159,2300,0,156,2443,282,875,35,589,1,0.000,3,0,0.355,0.108,0.100,0.020,-0.340,-0.165,-0.083,0.986,-0.106,-0.018,-0.012,0.000,0.000,0.000,0.000,1,2,0,1,7,255,1020,200,516,1020
stim,1551,1551,0,744233.829,0.984,0.056,-0.065,-0.159,2299,0,165,2457,292,885,27,584,1,0.000,3,0,2.511,0.107,0.340,0.200,-2.480,-0.147,-0.085,0.986,-0.106,-0.012,-0.012,0.000,0.000,0.000,0.000,1,2,0,1,7,255,1020,200,521,1020
stim,1583,1583,0,744238.829,0.984,0.056,-0.065,-0.159,2309,0,160,2437,291,884,27,589,1,0.000,3,0,1.421,0.010,0.520,0.080,-1.320,-0.129,-0.093,0.989,-0.008,0.006,-0.012,0.000,0.000,0.000,0.000,1,2,0,1,7,255,1020,200,526,1020
stim,1583,1583,0,744243.829,0.984,0.056,-0.065,-0.159,2328,0,167,2432,296,876,26,583,1,0.000,3,0,1.372,0.132,-0.080,-0.160,1.360,-0.135,-0.093,0.992,0.132,0.006,-0.012,0.000,0.000,0.000,0.000,1,2,0,1,7,255,1020,200,531,1020
stim,1583,1583,0,744248.829,0.984,0.056,-0.065,-0.159,2323,0,155,2456,294,881,33,584,1,0.000,3,0,2.163,0.132,-0.700,-0.160,2.040,-0.154,-0.087,0.989,0.132,-0.010,0.018,0.000,0.000,0.000,0.000,1,2,0,1,7,255,1020,200,536,1020
stim,1583,1583,0,744253.829,0.984,0.056,-0.065,-0.159,2313,0,155,2440,293,875,34,583,1,0.000,3,0,0.424,0.067,-0.400,0.020,0.140,-0.160,-0.084,0.983,-0.066,-0.014,0.018,0.000,0.000,0.000,0.000,1,2,0,1,7,255,1020,200,541,1020
stim,1583,1583,0,744258.829,0.984,0.056,-0.065,-0.159,2315,0,157,2441,277,876,31,576,1,0.000,3,0,1.666,0.068,0.580,0.080,-1.560,-0.149,-0.088,0.984,-0.066,-0.016,-0.032,0.000,0.000,0.000,0.000,1,2,0,1,7,255,1020,200,546,1020
stim,1583,1583,0,744263.829,0.984,0.056,-0.065,-0.159,2301,0,160,2457,285,877,29,589,1,0.000,3,0,1.321,0.028,0.760,0.020,-1.080,-0.137,-0.091,0.991,-0.024,-0.014,-0.032,0.000,0.000,0.000,0.000,1,2,0,1,7,255,1020,200,551,1020
stim,1583,1583,0,744268.829,0.984,0.056,-0.065,-0.159,2311,0,158,2453,281,883,28,586,1,0.000,3,0,0.649,0.076,0.100,-0.040,0.640,-0.139,-0.087,0.995,0.076,0.000,0.016,0.000,0.000,0.000,0.000,1,2,0,1,7,255,1020,200,556,1020
stim,1583,1583,0,744273.829,0.984,0.056,-0.065,-0.159,2321,0,159,2451,280,872,30,585,1,0.000,3,0,1.294,0.079,-0.640,-0.100,1.120,-0.149,-0.085,0.990,0.076,0.022,0.022,0.000,0.000,0.000,0.000,1,2,0,1,7,255,1020,200,561,1020
stim,1599,1599,0,744278.829,0.984,0.056,-0.065,-0.159,2321,0,165,2448,280,877,31,580,1,0.000,3,0,0.636,0.037,-0.580,0.020,0.260,-0.154,-0.089,0.983,-0.030,0.022,0.022,0.000,0.000,0.000,0.000,1,2,0,1,7,255,1020,200,566,1020
stim,1599,1599,0,744283.829,0.984,0.056,-0.065,-0.159,2327,0,155,2449,285,875,28,586,1,0.000,3,0,0.660,0.048,0.160,0.020,-0.640,-0.149,-0.092,0.983,-0.030,-0.038,-0.038,0.000,0.000,0.000,0.000,1,2,0,1,7,255,1020,200,571,1020
stim,1599,1599,0,744288.829,0.984,0.056,-0.065,-0.159,2300,1,159,2459,283,881,33,583,1,0.000,3,0,0.872,0.039,0.700,0.020,-0.520,-0.143,-0.090,0.987,-0.010,-0.038,-0.038,0.000,0.000,0.000,0.000,1,2,0,1,7,255,1020,200,576,1020
stim,1599,1599,0,744293.829,0.984,0.056,-0.065,-0.159,2315,0,157,2431,280,880,35,583,1,0.000,3,0,0.426,0.036,0.400,-0.040,0.140,-0.143,-0.086,0.993,0.036,-0.006,-0.010,0.000,0.000,0.000,0.000,1,2,0,1,7,255,1020,200,581,1020
stim,1616,1616,0,744298.829,0.984,0.056,-0.065,-0.159,2318,0,164,2432,277,885,31,586,1,0.000,3,0,0.474,0.048,-0.280,-0.040,0.380,-0.147,-0.085,0.992,0.036,0.032,0.038,0.000,0.000,0.000,0.000,1,2,0,1,7,255,1020,200,586,1020
stim,1616,1616,0,744303.829,0.984,0.056,-0.065,-0.159,2316,0,155,2455,280,873,35,584,1,0.000,3,0,0.503,0.032,-0.460,-0.040,0.200,-0.148,-0.088,0.986,-0.004,0.032,0.038,0.000,0.000,0.000,0.000,1,2,0,1,7,255,1020,200,591,1020
stim,1631,1631,0,744308.829,0.984,0.056,-0.065,-0.159,2300,0,157,2453,275,875,30,591,1,0.000,3,0,0.104,0.007,-0.020,0.020,-0.100,-0.148,-0.093,0.983,-0.004,-0.006,-0.014,0.000,0.000,0.000,0.000,1,2,0,1,7,255,1020,200,596,1020
stim,1631,1631,0,744313.829,0.984,0.056,-0.065,-0.159,2309,0,160,2459,276,875,29,587,1,0.000,3,0,0.511,0.006,0.460,-0.040,-0.220,-0.146,-0.088,0.986,0.002,-0.006,-0.016,0.000,0.000,0.000,0.000,1,2,0,1,7,255,1020,200,601,1020
stim,1667,1667,0,744318.829,0.984,0.056,-0.065,-0.159,2311,0,159,2441,283,883,26,587,1,0.000,3,0,0.407,0.008,0.340,-0.040,-0.220,-0.145,-0.086,0.991,0.008,0.000,-0.016,0.000,0.000,0.000,0.000,1,2,0,1,7,255,1020,200,606,1020
stim,1667,1667,0,744323.830,0.984,0.056,-0.065,-0.159,2316,0,163,2456,269,873,31,580,1,0.000,3,0,0.098,0.026,-0.080,-0.040,-0.040,-0.145,-0.087,0.991,0.016,0.020,0.022,0.000,0.000,0.000,0.000,1,2,0,1,7,255,1020,200,611,1020
stim,1667,1667,0,744328.829,0.984,0.056,-0.065,-0.159,2326,0,165,2451,282,883,29,587,1,0.000,3,0,0.370,0.030,-0.340,-0.040,0.140,-0.145,-0.089,0.989,0.022,0.020,0.022,0.000,0.000,0.000,0.000,1,2,0,1,7,255,1020,200,616,1020
stim,1667,1667,0,744333.829,0.984,0.056,-0.065,-0.159,2304,0,161,2438,281,883,31,593,1,0.000,3,0,0.162,0.023,-0.080,0.020,0.140,-0.147,-0.090,0.985,0.022,-0.008,0.006,0.000,0.000,0.000,0.000,1,2,0,1,7,255,1020,200,621,1020
stim,1667,1667,0,744338.829,0.984,0.056,-0.065,-0.159,2313,0,157,2445,277,879,29,587,1,0.000,3,0,0.227,0.022,0.220,-0.040,-0.040,-0.148,-0.089,0.985,-0.002,-0.022,-0.026,0.000,0.000,0.000,0.000,1,2,0,1,7,255,1020,200,626,1020
stim,1667,1667,0,744343.829,0.984,0.056,-0.065,-0.159,2323,0,160,2431,282,876,31,583,1,0.000,3,0,0.357,0.022,0.280,0.020,-0.220,-0.146,-0.088,0.989,-0.002,-0.022,-0.026,0.000,0.000,0.000,0.000,1,2,0,1,7,255,1020,200,631,1020
stim,1667,1667,0,744348.829,0.984,0.056,-0.065,-0.159,2316,0,157,2456,287,871,25,585,1,0.000,3,0,0.110,0.006,0.040,0.020,-0.100,-0.146,-0.089,0.991,0.006,-0.002,0.008,0.000,0.000,0.000,0.000,1,2,0,1,7,255,1020,200,636,1020
stim,1667,1667,0,744353.829,0.984,0.056,-0.065,-0.159,2315,0,153,2455,285,881,33,585,1,0.000,3,0,0.166,0.012,-0.160,-0.040,0.020,-0.146,-0.089,0.988,0.012,-0.002,0.008,0.000,0.000,0.000,0.000,1,2,0,1,7,255,1020,200,641,1020
stim,1679,1679,0,744358.829,0.984,0.056,-0.065,-0.159,2311,0,163,2431,281,876,30,587,1,0.000,3,0,0.147,0.013,-0.020,-0.040,0.140,-0.146,-0.088,0.987,0.012,-0.004,0.002,0.000,0.000,0.000,0.000,1,2,0,1,7,255,1020,200,646,1020
stim,1679,1679,0,744363.829,0.984,0.056,-0.065,-0.159,2323,0,155,2441,288,873,35,587,1,0.000,3,0,0.166,0.007,0.160,-0.040,0.020,-0.147,-0.088,0.987,0.004,-0.006,-0.004,0.000,0.000,0.000,0.000,1,2,0,1,7,255,1020,200,651,1020
stim,1697,1697,0,744368.829,0.984,0.056,-0.065,-0.159,2311,0,167,2455,291,873,27,582,1,0.000,3,0,0.323,0.006,0.280,0.020,-0.160,-0.146,-0.088,0.988,0.004,-0.004,-0.004,0.000,0.000,0.000,0.000,1,2,0,1,7,255,1020,200,656,1020
stim,1697,1697,0,744373.829,0.984,0.056,-0.065,-0.159,2317,0,160,2451,289,881,27,585,1,0.000,3,0,0.190,0.008,0.100,0.020,-0.160,-0.145,-0.088,0.990,0.008,-0.002,-0.002,0.000,0.000,0.000,0.000,1,2,0,1,7,255,1020,200,661,1020
stim,1697,1697,0,744378.829,0.984,0.056,-0.065,-0.159,2301,0,154,2443,283,877,30,583,1,0.000,3,0,0.035,0.009,-0.020,0.020,0.020,-0.146,-0.087,0.989,0.008,0.004,0.006,0.000,0.000,0.000,0.000,1,2,0,1,7,255,1020,200,666,1020
stim,1697,1697,0,744383.829,0.984,0.056,-0.065,-0.159,2317,0,158,2451,284,877,35,584,1,0.000,3,0,0.115,0.007,-0.080,0.020,0.080,-0.146,-0.089,0.988,0.006,0.004,0.006,0.000,0.000,0.000,0.000,1,2,0,1,7,255,1020,200,671,1020
stim,1711,1711,0,744388.829,0.984,0.056,-0.065,-0.159,2300,0,156,2447,281,879,30,589,1,0.000,3,0,0.092,0.008,-0.080,0.020,-0.040,-0.147,-0.088,0.986,0.006,-0.006,0.004,0.000,0.000,0.000,0.000,1,2,0,1,7,255,1020,200,676,1020
stim,1711,1711,0,744393.829,0.984,0.056,-0.065,-0.159,2314,0,157,2443,283,885,28,587,1,0.000,3,0,0.060,0.007,0.040,0.020,-0.040,-0.146,-0.088,0.989,0.004,-0.006,0.004,0.000,0.000,0.000,0.000,1,2,0,1,7,255,1020,200,681,1020
stim,1711,1711,0,744398.829,0.984,0.056,-0.065,-0.159,2313,0,160,2453,279,877,25,585,1,0.000,3,0,0.104,0.006,-0.020,0.020,-0.100,-0.146,-0.089,0.988,0.004,-0.004,0.002,0.000,0.000,0.000,0.000,1,2,0,1,7,255,1020,200,686,1020
stim,1711,1711,0,744403.829,0.984,0.056,-0.065,-0.159,2312,0,163,2439,275,880,33,587,1,0.000,3,0,0.060,0.004,-0.020,-0.040,-0.040,-0.147,-0.088,0.988,0.004,0.002,0.004,0.000,0.000,0.000,0.000,1,2,0,1,7,255,1020,200,691,1020
stim,1759,1759,0,744408.829,0.984,0.056,-0.065,-0.159,2311,0,159,2431,281,879,29,589,1,0.000,3,0,0.115,0.007,-0.080,0.020,0.080,-0.146,-0.089,0.988,0.006,-0.004,0.002,0.000,0.000,0.000,0.000,1,2,0,1,7,255,1020,200,696,1020
stim,1759,1759,0,744413.829,0.984,0.056,-0.065,-0.159,2299,0,155,2459,275,883,35,586,1,0.000,3,0,0.120,0.006,-0.080,-0.040,0.080,-0.147,-0.089,0.987,-0.002,-0.006,-0.002,0.000,0.000,0.000,0.000,1,2,0,1,7,255,1020,200,701,1020
stim,1759,1759,0,744418.829,0.984,0.056,-0.065,-0.159,2311,0,155,2429,282,876,29,587,1,0.000,3,0,0.134,0.008,0.100,-0.040,0.080,-0.147,-0.089,0.987,0.000,-0.008,-0.004,0.000,0.000,0.000,0.000,1,2,0,1,7,255,1020,200,706,1020
stim,1759,1759,0,744423.829,0.984,0.056,-0.065,-0.159,2302,0,163,2454,278,881,33,576,1,0.000,3,0,0.110,0.008,0.100,-0.040,0.020,-0.147,-0.089,0.988,0.000,-0.008,-0.004,0.000,0.000,0.000,0.000,1,2,0,1,7,255,1020,200,711,1020
stim,1759,1759,0,744428.829,0.984,0.056,-0.065,-0.159,2312,0,155,2431,256,878,34,587,1,0.000,3,0,0.134,0.008,0.100,-0.040,0.080,-0.146,-0.088,0.988,0.000,-0.008,0.000,0.000,0.000,0.000,0.000,1,2,0,1,7,255,1020,200,716,1020
stim,1759,1759,0,744433.829,0.984,0.056,-0.065,-0.159,2325,0,161,2444,278,879,25,585,1,0.000,3,0,0.098,0.010,0.040,-0.040,0.080,-0.146,-0.087,0.988,0.010,0.002,0.000,0.000,0.000,0.000,0.000,1,2,0,1,7,255,1020,200,721,1020
stim,1775,1775,0,744438.829,0.984,0.056,-0.065,-0.159,2299,0,155,2451,279,877,37,584,1,0.000,3,0,0.098,0.010,0.040,-0.040,0.080,-0.146,-0.088,0.988,0.010,0.002,0.000,0.000,0.000,0.000,0.000,1,2,0,1,7,255,1020,200,726,1020
stim,1775,1775,0,744443.829,0.984,0.056,-0.065,-0.159,2304,1,163,2441,275,881,29,587,1,0.000,3,0,0.110,0.010,0.100,-0.040,0.020,-0.146,-0.089,0.988,0.010,-0.002,0.000,0.000,0.000,0.000,0.000,1,2,0,1,7,255,1020,200,731,1020
stim,1775,1775,0,744448.829,0.984,0.056,-0.065,-0.159,2312,0,161,2445,275,874,31,587,1,0.000,3,0,0.166,0.004,0.160,-0.040,0.020,-0.146,-0.088,0.988,0.004,-0.002,0.002,0.000,0.000,0.000,0.000,1,2,0,1,7,255,1020,200,736,1020
stim,1775,1775,0,744453.829,0.984,0.056,-0.065,-0.159,2325,0,155,2472,267,871,26,576,1,0.000,3,0,0.166,0.004,0.160,-0.040,0.020,-0.147,-0.087,0.988,0.004,0.000,0.002,0.000,0.000,0.000,0.000,1,2,0,1,7,255,1020,200,741,1020
stim,1775,1775,0,744458.829,0.984,0.056,-0.065,-0.159,2300,0,161,2445,271,883,30,588,1,0.000,3,0,0.134,0.004,0.100,-0.040,0.080,-0.146,-0.089,0.988,0.004,0.000,-0.002,0.000,0.000,0.000,0.000,1,2,0,1,7,255,1020,200,746,1020
stim,1791,1791,0,744463.829,0.984,0.056,-0.065,-0.159,2323,0,156,2451,279,881,28,589,1,0.000,3,0,0.183,0.008,0.160,-0.040,0.080,-0.145,-0.089,0.987,0.008,-0.002,-0.002,0.000,0.000,0.000,0.000,1,2,0,1,7,255,1020,200,751,1020
stim,1791,1791,0,744468.829,0.984,0.056,-0.065,-0.159,2323,1,157,2431,273,872,30,580,1,0.000,3,0,0.180,0.008,0.160,0.020,0.080,-0.147,-0.088,0.988,0.008,-0.002,-0.002,0.000,0.000,0.000,0.000,1,2,0,1,7,255,1020,200,756,1020
stim,1791,1791,0,744473.829,0.984,0.056,-0.065,-0.159,2315,0,157,2453,280,875,33,584,1,0.000,3,0,0.183,0.003,0.160,-0.040,0.080,-0.147,-0.088,0.988,-0.002,-0.002,0.000,0.000,0.000,0.000,0.000,1,2,0,1,7,255,1020,200,761,1020
stim,1791,1791,0,744478.829,0.984,0.056,-0.065,-0.159,2311,0,155,2453,276,885,28,587,1,0.000,3,0,0.166,0.003,0.160,-0.040,0.020,-0.146,-0.089,0.988,-0.002,-0.002,0.004,0.000,0.000,0.000,0.000,1,2,0,1,7,255,1020,200,766,1020
stim,1807,1807,0,744483.829,0.984,0.056,-0.065,-0.159,2323,0,159,2441,270,874,33,581,1,0.000,3,0,0.110,0.003,0.100,-0.040,0.020,-0.147,-0.088,0.988,-0.002,-0.002,0.000,0.000,0.000,0.000,0.000,1,2,0,1,7,255,1020,200,771,1020
stim,1807,1807,0,744488.829,0.984,0.056,-0.065,-0.159,2317,0,155,2461,279,878,35,584,1,0.000,3,0,0.098,0.004,0.040,-0.040,0.080,-0.146,-0.088,0.989,0.004,-0.002,0.004,0.000,0.000,0.000,0.000,1,2,0,1,7,255,1020,200,776,1020
stim,1823,1823,0,744493.829,0.984,0.056,-0.065,-0.159,2328,0,155,2447,285,887,34,584,1,0.000,3,0,0.049,0.003,0.040,0.020,0.020,-0.147,-0.088,0.988,-0.002,0.002,-0.002,0.000,0.000,0.000,0.000,1,2,0,1,7,255,1020,200,781,1020
stim,1823,1823,0,744498.829,0.984,0.056,-0.065,-0.159,2313,0,163,2438,278,885,31,582,1,0.000,3,0,0.166,0.002,0.160,-0.040,0.020,-0.147,-0.089,0.988,0.000,0.002,0.004,0.000,0.000,0.000,0.000,1,2,0,1,7,255,1020,200,786,1020
stim,1823,1823,0,744503.829,0.984,0.056,-0.065,-0.159,2309,0,157,2455,279,875,29,583,1,0.000,3,0,0.104,0.000,0.100,0.020,0.020,-0.146,-0.088,0.988,0.000,0.000,0.002,0.000,0.000,0.000,0.000,1,2,0,1,7,255,1020,200,791,1020
stim,1823,1823,0,744508.829,0.984,0.056,-0.065,-0.159,2323,0,159,2453,280,873,30,585,1,0.000,3,0,0.130,0.002,0.100,0.020,0.080,-0.146,-0.087,0.989,0.002,0.000,0.004,0.000,0.000,0.000,0.000,1,2,0,1,7,255,1020,200,796,1020
stim,1856,1856,0,744513.829,0.984,0.056,-0.065,-0.159,2316,0,165,2449,276,878,33,585,1,0.000,3,0,0.049,0.006,0.040,0.020,0.020,-0.146,-0.088,0.988,0.002,0.006,0.002,0.000,0.000,0.000,0.000,1,2,0,1,7,255,1020,200,801,1020
stim,1856,1856,0,744518.830,0.984,0.056,-0.065,-0.159,2315,0,160,2444,277,876,27,588,1,0.000,3,0,0.110,0.012,0.100,-0.040,0.020,-0.146,-0.086,0.988,0.002,0.012,0.002,0.000,0.000,0.000,0.000,1,2,0,1,7,255,1020,200,806,1020
stim,1856,1856,0,744523.829,0.984,0.056,-0.065,-0.159,2303,0,162,2449,280,880,33,584,1,0.000,3,0,0.049,0.006,0.040,0.020,0.020,-0.146,-0.088,0.987,0.000,0.006,0.002,0.000,0.000,0.000,0.000,1,2,0,1,7,255,1020,200,811,1020
stim,1856,1856,0,744528.829,0.984,0.056,-0.065,-0.159,2303,0,158,2445,283,877,35,587,1,0.000,3,0,0.060,0.006,0.040,0.020,-0.040,-0.147,-0.088,0.988,-0.004,0.004,0.000,0.000,0.000,0.000,0.000,1,2,0,1,7,255,1020,200,816,1020
stim,1856,1856,0,744533.829,0.984,0.056,-0.065,-0.159,2315,2,163,2445,275,877,29,582,1,0.000,3,0,0.060,0.004,0.040,0.020,-0.040,-0.146,-0.088,0.989,0.000,0.004,0.000,0.000,0.000,0.000,0.000,1,2,0,1,7,255,1020,200,821,1020
stim,1856,1856,0,744538.829,0.984,0.056,-0.065,-0.159,2299,0,157,2455,295,879,35,584,1,0.000,3,0,0.147,0.008,0.040,-0.100,-0.100,-0.147,-0.088,0.988,-0.008,0.002,0.000,0.000,0.000,0.000,0.000,1,2,0,1,7,255,1020,200,826,1020
stim,1873,1873,0,744543.829,0.984,0.056,-0.065,-0.159,2303,0,157,2442,286,880,31,587,1,0.000,3,0,0.049,0.008,-0.020,0.020,-0.040,-0.147,-0.088,0.987,-0.008,0.002,-0.002,0.000,0.000,0.000,0.000,1,2,0,1,7,255,1020,200,831,1020
stim,1873,1873,0,744548.829,0.984,0.056,-0.065,-0.159,2311,0,163,2448,288,883,33,581,1,0.000,3,0,0.115,0.008,0.040,-0.040,-0.100,-0.146,-0.089,0.988,-0.008,0.002,-0.002,0.000,0.000,0.000,0.000,1,2,0,1,7,255,1020,200,836,1020
stim,1873,1873,0,744553.829,0.984,0.056,-0.065,-0.159,2301,0,155,2456,291,872,34,585,1,0.000,3,0,0.110,0.004,-0.020,-0.040,-0.100,-0.146,-0.087,0.988,0.004,0.002,0.000,0.000,0.000,0.000,0.000,1,2,0,1,7,255,1020,200,841,1020
stim,1873,1873,0,744558.829,0.984,0.056,-0.065,-0.159,2314,0,155,2439,285,881,33,587,1,0.000,3,0,0.098,0.013,-0.080,-0.040,-0.040,-0.146,-0.087,0.988,0.004,0.012,0.002,0.000,0.000,0.000,0.000,1,2,0,1,7,255,1020,200,846,1020
stim,1887,1887,0,744563.829,0.984,0.056,-0.065,-0.159,2316,0,157,2432,293,885,35,583,1,0.000,3,0,0.098,0.013,-0.080,-0.040,-0.040,-0.146,-0.088,0.988,0.006,0.012,0.002,0.000,0.000,0.000,0.000,1,2,0,1,7,255,1020,200,851,1020
stim,1887,1887,0,744568.829,0.984,0.056,-0.065,-0.159,2311,0,157,2447,295,876,28,585,1,0.000,3,0,0.049,0.006,-0.020,0.020,-0.040,-0.146,-0.088,0.989,0.002,0.006,0.002,0.000,0.000,0.000,0.000,1,2,0,1,7,255,1020,200,856,1020
stim,1887,1887,0,744573.829,0.984,0.056,-0.065,-0.159,2315,0,153,2445,283,872,27,581,1,0.000,3,0,0.060,0.006,-0.020,-0.040,-0.040,-0.147,-0.087,0.988,0.002,0.006,0.002,0.000,0.000,0.000,0.000,1,2,0,1,7,255,1020,200,861,1020
stim,1887,1887,0,744578.829,0.984,0.056,-0.065,-0.159,2318,1,153,2457,287,886,35,590,1,0.000,3,0,0.060,0.008,-0.020,-0.040,-0.040,-0.147,-0.089,0.987,-0.006,0.006,-0.002,0.000,0.000,0.000,0.000,1,2,0,1,7,255,1020,200,866,1020
stim,1907,1907,0,744583.829,0.984,0.056,-0.065,-0.159,2323,0,163,2447,281,875,30,582,1,0.000,3,0,0.092,0.006,-0.080,-0.040,0.020,-0.147,-0.088,0.988,-0.006,-0.002,-0.002,0.000,0.000,0.000,0.000,1,2,0,1,7,255,1020,200,871,1020
stim,1907,1907,0,744588.829,0.984,0.056,-0.065,-0.159,2315,0,167,2447,292,876,29,581,1,0.000,3,0,0.092,0.004,-0.080,0.020,-0.040,-0.146,-0.089,0.987,-0.002,-0.004,-0.004,0.000,0.000,0.000,0.000,1,2,0,1,7,255,1020,200,876,1020
stim,1907,1907,0,744593.829,0.984,0.056,-0.065,-0.159,2329,0,163,2442,280,873,33,587,1,0.000,3,0,0.060,0.002,-0.020,-0.040,-0.040,-0.146,-0.088,0.988,0.000,-0.002,-0.002,0.000,0.000,0.000,0.000,1,2,0,1,7,255,1020,200,881,1020
stim,1907,1907,0,744598.829,0.984,0.056,-0.065,-0.159,2303,0,157,2443,275,878,30,589,1,0.000,3,0,0.104,0.006,-0.020,0.020,-0.100,-0.146,-0.087,0.988,0.000,0.006,-0.002,0.000,0.000,0.000,0.000,1,2,0,1,7,255,1020,200,886,1020
stim,1919,1919,0,744603.829,0.984,0.056,-0.065,-0.159,2319,0,160,2432,281,876,27,587,1,0.000,3,0,0.110,0.006,-0.020,-0.100,-0.040,-0.147,-0.089,0.989,0.000,0.006,0.002,0.000,0.000,0.000,0.000,1,2,0,1,7,255,1020,200,891,1020
stim,1919,1919,0,744608.829,0.984,0.056,-0.065,-0.159,2325,0,162,2441,275,885,26,589,1,0.000,3,0,0.115,0.006,0.100,-0.040,-0.040,-0.146,-0.088,0.988,0.000,0.006,0.002,0.000,0.000,0.000,0.000,1,2,0,1,7,255,1020,200,896,1020
stim,1952,1952,0,744613.830,0.984,0.056,-0.065,-0.159,2299,1,157,2445,277,876,29,584,1,0.000,3,0,0.110,0.004,-0.020,-0.040,-0.100,-0.147,-0.088,0.988,0.000,0.004,0.002,0.000,0.000,0.000,0.000,1,2,0,1,7,255,1020,200,901,1020
stim,1952,1952,0,744618.829,0.984,0.056,-0.065,-0.159,2313,0,155,2453,277,884,35,586,1,0.000,3,0,0.143,0.007,-0.020,-0.100,-0.100,-0.146,-0.088,0.987,0.004,0.006,-0.004,0.000,0.000,0.000,0.000,1,2,0,1,7,255,1020,200,906,1020
stim,1952,1952,0,744623.829,0.984,0.056,-0.065,-0.159,2323,0,163,2447,275,880,33,583,1,0.000,3,0,0.060,0.007,0.040,-0.040,0.020,-0.146,-0.087,0.989,0.004,0.006,0.002,0.000,0.000,0.000,0.000,1,2,0,1,7,255,1020,200,911,1020
stim,1952,1952,0,744628.829,0.984,0.056,-0.065,-0.159,2315,0,160,2451,279,877,29,587,1,0.000,3,0,0.115,0.007,0.040,-0.040,-0.100,-0.147,-0.088,0.988,0.004,0.006,-0.002,0.000,0.000,0.000,0.000,1,2,0,1,7,255,1020,200,916,1020
stim,1970,1970,0,744633.829,0.984,0.056,-0.065,-0.159,2313,0,159,2441,272,875,28,589,1,0.000,3,0,0.104,0.013,-0.020,0.020,-0.100,-0.145,-0.088,0.988,0.008,0.010,0.000,0.000,0.000,0.000,0.000,1,2,0,1,7,255,1020,200,921,1020
stim,1970,1970,0,744638.829,0.984,0.056,-0.065,-0.159,2313,0,163,2451,275,875,31,583,1,0.000,3,0,0.104,0.004,-0.020,0.020,-0.100,-0.146,-0.089,0.987,0.002,0.004,-0.002,0.000,0.000,0.000,0.000,1,2,0,1,7,255,1020,200,926,1020
stim,1970,1970,0,744643.829,0.984,0.056,-0.065,-0.159,2301,0,157,2451,272,881,36,587,1,0.000,3,0,0.069,0.006,0.040,-0.040,-0.040,-0.146,-0.088,0.988,0.002,0.006,-0.002,0.000,0.000,0.000,0.000,1,2,0,1,7,255,1020,200,931,1020
stim,1970,1970,0,744648.829,0.984,0.056,-0.065,-0.159,2313,0,158,2439,275,877,27,589,1,0.000,3,0,0.060,0.004,-0.020,-0.040,-0.040,-0.146,-0.088,0.987,0.000,0.004,-0.010,0.000,0.000,0.000,0.000,1,2,0,1,7,255,1020,200,936,1020
stim,1970,1970,0,744653.829,0.984,0.056,-0.065,-0.159,2313,0,157,2449,276,878,29,588,1,0.000,3,0,0.060,0.004,-0.020,-0.040,-0.040,-0.146,-0.088,0.988,0.000,0.004,-0.002,0.000,0.000,0.000,0.000,1,2,0,1,7,255,1020,200,941,1020
stim,1970,1970,0,744658.829,0.984,0.056,-0.065,-0.159,2321,1,156,2445,271,879,28,584,1,0.000,3,0,0.060,0.007,0.040,0.020,-0.040,-0.146,-0.088,0.987,0.006,0.004,-0.008,0.000,0.000,0.000,0.000,1,2,0,1,7,255,1020,200,946,1020
stim,1970,1970,0,744663.829,0.984,0.056,-0.065,-0.159,2321,0,162,2443,277,880,33,584,1,0.000,3,0,0.035,0.006,-0.020,0.020,0.020,-0.146,-0.088,0.986,0.006,0.002,-0.008,0.000,0.000,0.000,0.000,1,2,0,1,7,255,1020,200,951,1020
stim,1983,1983,0,744668.829,0.984,0.056,-0.065,-0.159,2299,0,159,2428,267,879,26,589,1,0.000,3,0,0.060,0.004,0.040,-0.040,0.020,-0.146,-0.089,0.988,0.004,0.000,-0.008,0.000,0.000,0.000,0.000,1,2,0,1,7,255,1020,200,956,1020
stim,1983,1983,0,744673.829,0.984,0.056,-0.065,-0.159,2323,0,163,2448,275,879,29,589,1,0.000,3,0,0.060,0.008,0.040,-0.040,0.020,-0.146,-0.089,0.987,0.002,-0.008,-0.010,0.000,0.000,0.000,0.000,1,2,0,1,7,255,1020,200,961,1020
stim,1999,1999,0,744678.829,0.984,0.056,-0.065,-0.159,2312,0,159,2453,278,875,31,591,1,0.000,3,0,0.098,0.008,0.040,-0.040,0.080,-0.146,-0.088,0.988,0.002,-0.008,-0.002,0.000,0.000,0.000,0.000,1,2,0,1,7,255,1020,200,966,1020
stim,1999,1999,0,744683.829,0.984,0.056,-0.065,-0.158,2319,0,163,2451,279,886,30,583,1,0.000,3,0,0.104,0.002,0.100,0.020,0.020,-0.147,-0.088,0.988,0.000,0.002,-0.002,0.000,0.000,0.000,0.000,1,2,0,1,7,255,1020,200,971,1020
stim,2015,2015,0,744688.829,0.984,0.056,-0.065,-0.158,2315,0,158,2451,278,883,35,593,1,0.000,3,0,0.134,0.002,0.100,-0.040,0.080,-0.146,-0.089,0.988,0.000,0.002,0.004,0.000,0.000,0.000,0.000,1,2,0,1,7,255,1020,200,976,1020
stim,2015,2015,0,744693.829,0.984,0.056,-0.065,-0.158,2311,0,157,2439,275,883,35,591,1,0.000,3,0,0.110,0.003,0.100,-0.040,0.020,-0.146,-0.089,0.987,0.002,-0.002,0.004,0.000,0.000,0.000,0.000,1,2,0,1,7,255,1020,200,981,1020
stim,2015,2015,0,744698.829,0.984,0.056,-0.065,-0.158,2303,0,156,2451,268,880,28,585,1,0.000,3,0,0.180,0.003,0.160,0.020,0.080,-0.147,-0.089,0.988,0.002,-0.002,0.000,0.000,0.000,0.000,0.000,1,2,0,1,7,255,1020,200,986,1020
stim,2015,2015,0,744703.829,0.984,0.056,-0.065,-0.158,2313,0,159,2445,281,883,30,586,1,0.000,3,0,0.110,0.004,0.100,-0.040,0.020,-0.146,-0.088,0.988,0.004,-0.002,-0.002,0.000,0.000,0.000,0.000,1,2,0,1,7,255,1020,200,991,1020
stim,2031,2031,0,744708.829,0.984,0.056,-0.065,-0.158,2297,0,157,2431,271,873,30,580,1,0.000,3,0,0.180,0.004,0.160,0.020,0.080,-0.147,-0.089,0.988,-0.002,-0.004,0.000,0.000,0.000,0.000,0.000,1,2,0,1,7,255,1020,200,996,1020
stim,2031,2031,0,744713.829,0.984,0.056,-0.065,-0.158,2329,0,163,2432,268,883,27,587,1,0.000,3,0,0.134,0.004,0.100,-0.040,0.080,-0.146,-0.088,0.989,0.002,0.004,0.006,0.000,0.000,0.000,0.000,1,2,0,1,7,255,1020,200,1001,1020
stim,2063,2063,0,744718.829,0.984,0.056,-0.065,-0.158,2317,1,156,2453,279,877,29,587,1,0.000,3,0,0.134,0.004,0.100,-0.040,0.080,-0.147,-0.089,0.989,0.000,-0.004,0.008,0.000,0.000,0.000,0.000,1,2,0,1,7,255,1020,200,1006,1020
stim,2063,2063,0,744723.830,0.984,0.056,-0.065,-0.158,2323,0,156,2439,273,877,29,589,1,0.000,3,0,0.130,0.003,0.100,0.020,0.080,-0.145,-0.089,0.988,0.002,0.002,0.008,0.000,0.000,0.000,0.000,1,2,0,1,7,255,1020,200,1011,1020
stim,2063,2063,0,744728.829,0.984,0.056,-0.065,-0.158,2300,0,156,2441,276,876,28,589,1,0.000,3,0,0.104,0.006,0.100,0.020,0.020,-0.146,-0.089,0.987,0.006,-0.002,-0.004,0.000,0.000,0.000,0.000,1,2,0,1,7,255,1020,200,1016,1020
stim,2063,2063,1,744733.829,0.984,0.056,-0.065,-0.158,2317,0,160,2442,271,877,27,589,1,0.000,3,0,0.177,0.014,0.100,-0.040,0.140,-0.145,-0.088,0.989,0.014,0.002,-0.004,0.000,0.000,0.000,0.000,1,2,1,1,7,255,1020,200,1,1020
stim,2079,2079,1,744738.829,0.984,0.056,-0.065,-0.158,2315,0,163,2451,275,877,27,584,1,0.000,3,0,0.098,0.010,0.040,-0.040,0.080,-0.146,-0.087,0.989,0.006,0.008,0.006,0.000,0.000,0.000,0.000,1,2,1,1,7,255,1020,200,6,1020
stim,2079,2079,1,744743.829,0.984,0.056,-0.065,-0.158,2321,0,163,2439,277,881,26,583,1,0.000,3,0,0.134,0.008,0.100,-0.040,0.080,-0.147,-0.088,0.988,0.002,0.008,0.006,0.000,0.000,0.000,0.000,1,2,1,1,7,255,1020,200,11,1020
stim,2079,2079,1,744748.829,0.984,0.056,-0.065,-0.158,2299,0,157,2441,265,877,31,584,1,0.000,3,0,0.098,0.008,0.040,-0.040,0.080,-0.147,-0.088,0.987,-0.006,0.006,0.004,0.000,0.000,0.000,0.000,1,2,1,1,7,255,1020,200,16,1020
stim,2079,2079,1,744753.829,0.984,0.056,-0.065,-0.158,2313,0,158,2438,268,872,30,586,1,0.000,3,0,0.120,0.008,0.040,0.080,0.080,-0.146,-0.088,0.987,-0.006,0.006,-0.008,0.000,0.000,0.000,0.000,1,2,1,1,7,255,1020,200,21,1020
stim,2079,2079,1,744758.829,0.984,0.056,-0.065,-0.158,2309,0,160,2449,277,876,29,589,1,0.000,3,0,0.110,0.008,0.100,-0.040,0.020,-0.146,-0.087,0.989,-0.002,0.008,-0.008,0.000,0.000,0.000,0.000,1,2,1,1,7,255,1020,200,26,1020
stim,2079,2079,1,744763.829,0.984,0.056,-0.065,-0.158,2309,0,155,2449,281,877,30,587,1,0.000,3,0,0.134,0.008,0.100,-0.040,0.080,-0.146,-0.089,0.987,0.002,0.008,-0.006,0.000,0.000,0.000,0.000,1,2,1,1,7,255,1020,200,31,1020
stim,2079,2079,1,744768.829,0.984,0.056,-0.065,-0.158,2317,0,157,2441,279,878,33,581,1,0.000,3,0,0.173,0.008,-0.020,-0.100,0.140,-0.147,-0.091,0.987,-0.002,-0.008,-0.002,0.000,0.000,0.000,0.000,1,2,1,1,7,255,1020,200,36,1020
stim,2079,2079,1,744773.829,0.984,0.056,-0.065,-0.158,2301,0,161,2453,275,875,29,583,1,0.000,3,0,0.199,0.022,0.100,-0.100,0.140,-0.148,-0.090,0.986,-0.002,-0.022,-0.006,0.000,0.000,0.000,0.000,1,2,1,1,7,255,1020,200,41,1020
stim,2095,2095,1,744778.829,0.984,0.056,-0.065,-0.158,2322,0,157,2440,271,875,30,585,1,0.000,3,0,0.550,0.026,0.520,0.080,-0.160,-0.147,-0.081,0.989,-0.014,-0.022,-0.002,0.000,0.000,0.000,0.000,1,2,1,1,7,255,1020,200,46,1020
stim,2095,2095,1,744783.829,0.984,0.056,-0.065,-0.158,2313,0,157,2446,277,877,31,583,1,0.000,3,0,0.530,0.058,0.100,0.020,-0.520,-0.146,-0.083,0.992,-0.014,0.056,0.008,0.000,0.000,0.000,0.000,1,2,1,1,7,255,1020,200,51,1020
stim,2111,2111,1,744788.829,0.984,0.056,-0.065,-0.158,2312,1,163,2445,279,881,33,583,1,0.000,3,0,0.802,0.056,-0.760,-0.160,0.200,-0.138,-0.108,0.988,-0.006,0.056,0.008,0.000,0.000,0.000,0.000,1,2,1,1,7,255,1020,200,56,1020
stim,2111,2111,1,744793.829,0.984,0.056,-0.065,-0.158,2309,0,160,2449,279,873,31,588,1,0.000,3,0,1.493,0.056,0.460,-0.040,1.420,-0.146,-0.079,0.983,-0.006,0.056,0.004,0.000,0.000,0.000,0.000,1,2,1,1,7,255,1020,200,61,1020
stim,2127,2127,1,744798.829,0.984,0.056,-0.065,-0.158,2315,0,159,2451,277,877,31,587,1,0.000,3,0,0.510,0.058,-0.220,0.020,-0.460,-0.164,-0.077,0.986,-0.026,0.052,-0.006,0.000,0.000,0.000,0.000,1,2,1,1,7,255,1020,200,66,1020
stim,2127,2127,1,744803.829,0.984,0.056,-0.065,-0.158,2310,0,159,2443,283,882,29,589,1,0.000,3,0,1.454,0.058,1.080,-0.160,-0.960,-0.133,-0.104,0.995,-0.026,0.052,-0.006,0.000,0.000,0.000,0.000,1,2,1,1,7,255,1020,200,71,1020
stim,2160,2160,1,744808.829,0.984,0.056,-0.065,-0.158,2303,0,158,2441,273,877,26,586,1,0.000,3,0,1.073,0.116,-1.000,0.320,-0.220,-0.151,-0.070,0.982,-0.104,0.052,-0.006,0.000,0.000,0.000,0.000,1,2,1,1,7,255,1020,200,76,1020
stim,2160,2160,1,744813.829,0.984,0.056,-0.065,-0.158,2313,0,165,2455,279,877,33,585,1,0.000,3,0,1.315,0.211,0.940,-0.660,0.640,-0.132,-0.107,0.993,0.186,-0.100,0.046,0.000,0.000,0.000,0.000,1,2,1,1,7,255,1020,200,81,1020
stim,2160,2160,1,744818.829,0.984,0.056,-0.065,-0.158,2316,0,163,2447,267,875,31,583,1,0.000,3,0,1.560,0.132,-1.180,0.680,0.760,-0.165,-0.073,0.981,-0.104,0.082,-0.056,0.000,0.000,0.000,0.000,1,2,1,1,7,255,1020,200,86,1020
stim,2160,2160,1,744823.830,0.984,0.056,-0.065,-0.158,2304,0,159,2427,267,875,27,580,1,0.000,3,0,1.991,0.121,1.560,-1.020,-0.700,-0.138,-0.096,0.998,0.116,-0.034,0.046,0.000,0.000,0.000,0.000,1,2,1,1,7,255,1020,200,91,1020
stim,2160,2160,1,744828.829,0.984,0.056,-0.065,-0.158,2309,0,157,2453,303,881,26,585,1,0.000,3,0,2.038,0.093,-1.740,1.060,-0.040,-0.153,-0.083,0.975,-0.092,0.014,-0.056,0.000,0.000,0.000,0.000,1,2,1,1,7,255,1020,200,96,1020
stim,2160,2160,1,744833.829,0.984,0.056,-0.065,-0.158,2311,0,155,2427,279,874,27,584,1,0.000,3,0,1.834,0.055,1.500,-0.840,-0.640,-0.143,-0.092,0.995,0.052,-0.018,0.062,0.000,0.000,0.000,0.000,1,2,1,1,7,255,1020,200,101,1020
stim,2160,2160,1,744838.829,0.984,0.056,-0.065,-0.158,2304,0,160,2443,261,881,27,583,1,0.000,3,0,0.296,0.055,-0.020,0.260,0.140,-0.143,-0.094,0.992,0.052,-0.018,0.034,0.000,0.000,0.000,0.000,1,2,1,1,7,255,1020,200,106,1020
stim,2176,2176,1,744843.829,0.984,0.056,-0.065,-0.158,2297,0,159,2441,369,873,29,585,1,0.000,3,0,1.260,0.055,-1.000,-0.100,0.760,-0.143,-0.076,0.983,0.052,-0.018,0.034,0.000,0.000,0.000,0.000,1,2,1,1,7,255,1020,200,111,1020
stim,2176,2176,1,744848.829,0.984,0.056,-0.065,-0.158,2309,0,155,2441,353,883,27,583,1,0.000,3,0,0.298,0.036,0.220,0.200,0.020,-0.152,-0.092,0.985,-0.012,-0.034,-0.018,0.000,0.000,0.000,0.000,1,2,1,1,7,255,1020,200,116,1020
stim,2176,2176,1,744853.829,0.984,0.056,-0.065,-0.158,2301,0,156,2441,235,875,27,583,1,0.000,3,0,0.989,0.056,0.640,-0.280,-0.700,-0.152,-0.096,0.996,-0.020,-0.052,-0.018,0.000,0.000,0.000,0.000,1,2,1,1,7,255,1020,200,121,1020
stim,2176,2176,1,744858.829,0.984,0.056,-0.065,-0.158,2317,0,155,2424,285,871,28,575,1,0.000,3,0,0.404,0.056,-0.080,-0.280,-0.280,-0.142,-0.088,0.985,-0.020,-0.052,-0.018,0.000,0.000,0.000,0.000,1,2,1,1,7,255,1020,200,126,1020
stim,2176,2176,1,744863.829,0.984,0.056,-0.065,-0.158,2311,0,152,2437,341,877,31,581,1,0.000,3,0,0.543,0.014,-0.220,0.380,0.320,-0.144,-0.085,0.984,0.010,0.010,-0.038,0.000,0.000,0.000,0.000,1,2,1,1,7,255,1020,200,131,1020
stim,2176,2176,1,744868.829,0.984,0.056,-0.065,-0.158,2313,0,163,2431,406,875,27,583,1,0.000,3,0,0.284,0.014,-0.080,-0.160,-0.220,-0.150,-0.091,0.995,0.010,0.010,-0.038,0.000,0.000,0.000,0.000,1,2,1,1,7,255,1020,200,136,1020
stim,2191,2191,1,744873.829,0.984,0.056,-0.065,-0.158,2314,0,153,2451,403,870,27,581,1,0.000,3,0,0.526,0.022,0.040,-0.340,-0.400,-0.144,-0.087,0.987,0.010,0.020,-0.012,0.000,0.000,0.000,0.000,1,2,1,1,7,255,1020,200,141,1020
stim,2191,2191,1,744878.829,0.984,0.056,-0.065,-0.158,2309,0,157,2446,397,879,28,587,1,0.000,3,0,0.264,0.027,0.100,0.200,0.140,-0.140,-0.081,0.982,0.018,0.020,-0.012,0.000,0.000,0.000,0.000,1,2,1,1,7,255,1020,200,146,1020
stim,2208,2208,1,744883.829,0.984,0.056,-0.065,-0.158,2297,0,157,2439,383,875,31,582,1,0.000,3,0,0.602,0.057,0.160,0.020,0.580,-0.141,-0.084,0.986,0.034,0.046,-0.030,0.000,0.000,0.000,0.000,1,2,1,1,7,255,1020,200,151,1020
stim,2208,2208,1,744888.829,0.984,0.056,-0.065,-0.158,2301,0,153,2445,445,877,26,583,1,0.000,3,0,0.393,0.057,0.100,0.020,0.380,-0.148,-0.088,0.989,0.034,0.046,-0.030,0.000,0.000,0.000,0.000,1,2,1,1,7,255,1020,200,156,1020
stim,2208,2208,1,744893.829,0.984,0.056,-0.065,-0.158,2321,0,159,2455,484,876,30,589,1,0.000,3,0,0.104,0.010,-0.020,-0.100,0.020,-0.150,-0.095,0.992,-0.010,-0.002,0.014,0.000,0.000,0.000,0.000,1,2,1,1,7,255,1020,200,161,1020
stim,2208,2208,1,744898.829,0.984,0.056,-0.065,-0.158,2311,0,152,2450,503,877,26,581,1,0.000,3,0,0.255,0.073,-0.080,-0.100,-0.220,-0.150,-0.095,0.988,-0.014,-0.072,0.014,0.000,0.000,0.000,0.000,1,2,1,1,7,255,1020,200,166,1020
stim,2223,2223,1,744903.829,0.984,0.056,-0.065,-0.158,2315,0,159,2444,560,872,31,585,1,0.000,3,0,0.298,0.073,-0.020,-0.100,-0.280,-0.148,-0.089,0.987,-0.010,-0.072,0.014,0.000,0.000,0.000,0.000,1,2,1,1,7,255,1020,200,171,1020
stim,2223,2223,1,744908.829,0.984,0.056,-0.065,-0.158,2315,0,161,2445,585,881,31,585,1,0.000,3,0,0.147,0.019,0.100,-0.040,-0.100,-0.147,-0.089,0.987,-0.010,-0.016,-0.004,0.000,0.000,0.000,0.000,1,2,1,1,7,255,1020,200,176,1020
stim,2255,2255,1,744913.829,0.984,0.056,-0.065,-0.158,2313,0,157,2450,677,874,30,583,1,0.000,3,0,0.147,0.014,0.040,-0.100,-0.100,-0.146,-0.088,0.988,-0.002,-0.014,-0.004,0.000,0.000,0.000,0.000,1,2,1,1,7,255,1020,200,181,1020
stim,2255,2255,1,744918.829,0.984,0.056,-0.065,-0.158,2303,0,155,2444,796,877,25,581,1,0.000,3,0,0.049,0.010,-0.020,-0.040,0.020,-0.144,-0.086,0.989,0.008,0.006,0.002,0.000,0.000,0.000,0.000,1,2,1,1,7,255,1020,200,186,1020
stim,2255,2255,1,744923.830,0.984,0.056,-0.065,-0.158,2309,0,154,2439,856,873,31,575,1,0.000,3,0,0.143,0.014,-0.020,0.020,0.140,-0.145,-0.088,0.988,0.012,0.008,0.002,0.000,0.000,0.000,0.000,1,2,1,1,7,255,1020,200,191,1020
stim,2255,2255,1,744928.829,0.984,0.056,-0.065,-0.158,2301,0,159,2453,842,881,29,581,1,0.000,3,0,0.177,0.016,0.100,-0.040,0.140,-0.145,-0.087,0.987,0.012,0.010,0.000,0.000,0.000,0.000,0.000,1,2,1,1,7,255,1020,200,196,1020
stim,2255,2255,0,744933.829,0.984,0.056,-0.065,-0.158,2315,0,153,2443,823,877,29,583,1,0.000,3,0,0.177,0.013,0.100,-0.040,0.140,-0.145,-0.085,0.987,0.008,0.010,-0.014,0.000,0.000,0.000,0.000,1,2,0,1,7,255,1020,200,201,1020
stim,2255,2255,0,744938.829,0.984,0.056,-0.065,-0.158,2311,0,153,2444,603,878,29,575,1,0.000,3,0,0.162,0.023,0.160,0.020,0.020,-0.145,-0.086,0.988,0.008,0.022,-0.014,0.000,0.000,0.000,0.000,1,2,0,1,7,255,1020,200,206,1020
stim,2271,2271,0,744943.829,0.984,0.056,-0.065,-0.158,2299,0,157,2455,430,876,30,585,1,0.000,3,0,0.143,0.023,0.100,0.020,-0.100,-0.146,-0.086,0.988,0.006,0.022,-0.002,0.000,0.000,0.000,0.000,1,2,0,1,7,255,1020,200,211,1020
stim,2271,2271,0,744948.829,0.984,0.056,-0.065,-0.158,2300,0,153,2443,367,876,30,589,1,0.000,3,0,0.110,0.016,0.040,0.020,-0.100,-0.147,-0.089,0.988,-0.004,0.016,-0.002,0.000,0.000,0.000,0.000,1,2,0,1,7,255,1020,200,216,1020
stim,2271,2271,0,744953.829,0.984,0.056,-0.065,-0.158,2323,0,155,2452,360,876,27,589,1,0.000,3,0,0.092,0.010,-0.080,-0.040,0.020,-0.149,-0.091,0.988,-0.006,-0.008,0.004,0.000,0.000,0.000,0.000,1,2,0,1,7,255,1020,200,221,1020
stim,2271,2271,0,744958.829,0.984,0.056,-0.065,-0.158,2315,0,161,2438,375,875,35,585,1,0.000,3,0,0.049,0.032,-0.020,-0.040,0.020,-0.147,-0.091,0.988,-0.004,-0.032,0.008,0.000,0.000,0.000,0.000,1,2,0,1,7,255,1020,200,226,1020
stim,2287,2287,0,744963.829,0.984,0.056,-0.065,-0.158,2323,0,155,2449,327,877,30,584,1,0.000,3,0,0.115,0.032,0.100,-0.040,-0.040,-0.146,-0.088,0.987,0.000,-0.032,0.008,0.000,0.000,0.000,0.000,1,2,0,1,7,255,1020,200,231,1020
stim,2287,2287,0,744968.829,0.984,0.056,-0.065,-0.158,2301,0,160,2443,299,884,33,587,1,0.000,3,0,0.147,0.007,0.100,-0.040,-0.100,-0.144,-0.086,0.988,0.006,0.004,-0.008,0.000,0.000,0.000,0.000,1,2,0,1,7,255,1020,200,236,1020
stim,2287,2287,0,744973.829,0.984,0.056,-0.065,-0.158,2298,0,156,2453,341,880,34,583,1,0.000,3,0,0.202,0.035,-0.020,0.020,0.200,-0.141,-0.082,0.986,0.018,0.030,-0.012,0.000,0.000,0.000,0.000,1,2,0,1,7,255,1020,200,241,1020
stim,2287,2287,0,744978.829,0.984,0.056,-0.065,-0.158,2304,0,163,2442,352,877,31,581,1,0.000,3,0,0.648,0.071,0.100,0.020,0.640,-0.141,-0.083,0.988,0.030,0.064,-0.014,0.000,0.000,0.000,0.000,1,2,0,1,7,255,1020,200,246,1020
stim,2311,2311,0,744983.829,0.984,0.056,-0.065,-0.158,2313,0,157,2451,347,879,27,586,1,0.000,3,0,0.681,0.071,0.220,0.080,0.640,-0.150,-0.090,0.988,0.030,0.064,-0.014,0.000,0.000,0.000,0.000,1,2,0,1,7,255,1020,200,251,1020
stim,2311,2311,0,744988.829,0.984,0.056,-0.065,-0.158,2325,0,159,2453,320,875,31,583,1,0.000,3,0,0.173,0.045,0.100,-0.100,-0.100,-0.158,-0.101,0.992,-0.030,-0.034,0.012,0.000,0.000,0.000,0.000,1,2,0,1,7,255,1020,200,256,1020
stim,2319,2319,0,744993.829,0.984,0.056,-0.065,-0.158,2310,0,163,2431,377,877,31,585,1,0.000,3,0,1.190,0.103,-0.020,-0.340,-1.140,-0.153,-0.097,0.991,-0.032,-0.098,0.044,0.000,0.000,0.000,0.000,1,2,0,1,7,255,1020,200,261,1020
stim,2319,2319,0,744998.829,0.984,0.056,-0.065,-0.158,2316,0,156,2457,335,878,28,587,1,0.000,3,0,0.442,0.103,0.100,-0.160,-0.400,-0.134,-0.078,0.984,-0.032,-0.098,0.044,0.000,0.000,0.000,0.000,1,2,0,1,7,255,1020,200,266,1020
stim,2319,2319,0,745003.829,0.984,0.056,-0.065,-0.158,2311,0,155,2451,304,875,35,584,1,0.000,3,0,1.401,0.144,0.280,0.440,1.300,-0.133,-0.073,0.982,0.066,0.128,-0.066,0.000,0.000,0.000,0.000,1,2,0,1,7,255,1020,200,271,1020
stim,2319,2319,0,745008.829,0.984,0.056,-0.065,-0.158,2304,0,157,2447,296,881,27,585,1,0.000,3,0,0.636,0.144,-0.020,0.260,0.580,-0.156,-0.094,0.991,0.066,0.128,-0.066,0.000,0.000,0.000,0.000,1,2,0,1,7,255,1020,200,276,1020
stim,2319,2319,0,745013.829,0.984,0.056,-0.065,-0.158,2324,0,156,2443,276,873,28,584,1,0.000,3,0,1.358,0.080,-0.160,-0.720,-1.140,-0.152,-0.095,0.995,-0.024,-0.076,0.046,0.000,0.000,0.000,0.000,1,2,0,1,7,255,1020,200,281,1020
stim,2351,2351,0,745018.829,0.984,0.056,-0.065,-0.158,2323,0,159,2439,275,876,25,585,1,0.000,3,0,0.611,0.080,0.400,-0.040,0.460,-0.141,-0.083,0.982,-0.024,-0.076,0.046,0.000,0.000,0.000,0.000,1,2,0,1,7,255,1020,200,286,1020
stim,2351,2351,0,745023.830,0.984,0.056,-0.065,-0.158,2321,0,154,2459,271,875,30,587,1,0.000,3,0,0.762,0.080,0.040,0.760,-0.040,-0.154,-0.099,0.989,-0.024,-0.076,0.032,0.000,0.000,0.000,0.000,1,2,0,1,7,255,1020,200,291,1020
stim,2372,2372,0,745028.829,0.984,0.056,-0.065,-0.158,2328,0,153,2445,276,879,37,583,1,0.000,3,0,1.994,0.056,-0.400,-1.320,-1.440,-0.132,-0.076,0.995,0.028,0.048,0.032,0.000,0.000,0.000,0.000,1,2,0,1,7,255,1020,200,296,1020
stim,2372,2372,0,745033.829,0.984,0.056,-0.065,-0.158,2323,0,155,2451,268,880,36,587,1,0.000,3,0,2.978,0.096,0.760,0.820,2.760,-0.143,-0.076,0.968,-0.028,0.092,0.032,0.000,0.000,0.000,0.000,1,2,0,1,7,255,1020,200,301,1020
stim,2372,2372,0,745038.829,0.984,0.056,-0.065,-0.158,2315,0,152,2452,277,875,29,584,1,0.000,3,0,2.209,0.096,-0.340,1.000,-1.940,-0.178,-0.127,1.012,-0.028,0.092,0.038,0.000,0.000,0.000,0.000,1,2,0,1,7,255,1020,200,306,1020
stim,2372,2372,0,745043.829,0.984,0.056,-0.065,-0.158,2303,0,158,2455,263,883,29,587,1,0.000,3,0,3.504,0.096,-0.280,-3.280,-1.200,-0.107,-0.048,0.986,-0.028,0.092,-0.112,0.000,0.000,0.000,0.000,1,2,0,1,7,255,1020,200,311,1020
stim,2373,2373,0,745048.829,0.984,0.056,-0.065,-0.158,2303,0,163,2444,276,877,29,587,1,0.000,3,0,5.810,0.253,0.940,3.860,4.240,-0.169,-0.099,0.953,-0.138,-0.212,-0.112,0.000,0.000,0.000,0.000,1,2,0,1,7,255,1020,200,316,1020
stim,2373,2373,0,745053.829,0.984,0.056,-0.065,-0.158,2321,0,157,2455,277,886,34,585,1,0.000,3,0,6.037,0.183,-1.000,-2.180,-5.540,-0.150,-0.111,1.045,0.098,-0.154,-0.112,0.000,0.000,0.000,0.000,1,2,0,1,7,255,1020,200,321,1020
stim,2384,2384,0,745058.829,0.984,0.056,-0.065,-0.158,2300,0,160,2458,270,885,27,591,1,0.000,3,0,4.990,0.163,0.940,-1.080,4.780,-0.120,-0.046,0.936,0.054,-0.154,-0.294,0.000,0.000,0.000,0.000,1,2,0,1,7,255,1020,200,326,1020
stim,2384,2384,0,745063.829,0.984,0.056,-0.065,-0.158,2316,0,160,2453,279,877,30,587,1,0.000,3,0,5.323,0.163,-0.520,4.160,-3.280,-0.184,-0.133,1.018,0.054,-0.154,0.384,0.000,0.000,0.000,0.000,1,2,0,1,7,255,1020,200,331,1020
stim,2384,2384,0,745068.829,0.984,0.056,-0.065,-0.158,2312,0,159,2432,260,883,28,589,1,0.000,3,0,6.274,0.402,0.460,-6.080,1.480,-0.106,-0.050,0.990,0.054,0.398,-0.072,0.000,0.000,0.000,0.000,1,2,0,1,7,255,1020,200,336,1020
stim,2384,2384,0,745073.829,0.984,0.056,-0.065,-0.158,2315,0,157,2440,263,875,25,587,1,0.000,3,0,6.518,0.457,-0.280,6.480,-0.640,-0.182,-0.119,0.959,-0.166,-0.426,-0.072,0.000,0.000,0.000,0.000,1,2,0,1,7,255,1020,200,341,1020
stim,2404,2404,0,745078.829,0.984,0.056,-0.065,-0.158,2311,0,158,2445,265,880,25,588,1,0.000,3,0,5.730,0.440,0.280,-5.720,0.200,-0.113,-0.065,1.032,0.250,0.362,-0.072,0.000,0.000,0.000,0.000,1,2,0,1,7,255,1020,200,346,1020
stim,2404,2404,0,745083.829,0.984,0.056,-0.065,-0.158,2293,1,159,2453,265,864,26,589,1,0.000,3,0,4.630,0.405,-0.340,4.600,-0.400,-0.175,-0.106,0.940,-0.254,-0.316,-0.202,0.000,0.000,0.000,0.000,1,2,0,1,7,255,1020,200,351,1020
stim,2415,2415,0,745088.829,0.984,0.056,-0.065,-0.158,2311,0,166,2455,280,885,30,595,1,0.000,3,0,3.355,0.362,0.400,-3.280,0.580,-0.122,-0.071,1.031,0.222,0.286,0.356,0.000,0.000,0.000,0.000,1,2,0,1,7,255,1020,200,356,1020
stim,2415,2415,0,745093.829,0.984,0.056,-0.065,-0.158,2316,0,160,2456,273,878,27,587,1,0.000,3,0,2.618,0.311,-0.460,2.340,-1.080,-0.167,-0.104,0.954,-0.174,-0.258,-0.288,0.000,0.000,0.000,0.000,1,2,0,1,7,255,1020,200,361,1020
stim,2415,2415,0,745098.830,0.984,0.056,-0.065,-0.158,2311,0,156,2455,277,883,33,587,1,0.000,3,0,2.120,0.237,0.460,-1.700,1.180,-0.131,-0.075,1.013,0.128,0.200,0.204,0.000,0.000,0.000,0.000,1,2,0,1,7,255,1020,200,366,1020
stim,2415,2415,0,745103.829,0.984,0.056,-0.065,-0.158,2317,0,155,2445,269,877,33,589,1,0.000,3,0,1.800,0.157,-0.340,1.240,-1.260,-0.156,-0.098,0.973,-0.070,-0.140,-0.122,0.000,0.000,0.000,0.000,1,2,0,1,7,255,1020,200,371,1020
stim,2464,2464,0,745108.829,0.984,0.056,-0.065,-0.158,2303,0,159,2441,281,878,25,591,1,0.000,3,0,1.418,0.082,0.280,-0.900,1.060,-0.142,-0.082,0.994,0.026,0.078,0.042,0.000,0.000,0.000,0.000,1,2,0,1,7,255,1020,200,376,1020
stim,2464,2464,0,745113.829,0.984,0.056,-0.065,-0.158,2323,0,163,2447,266,875,33,586,1,0.000,3,0,0.964,0.018,-0.080,0.560,-0.780,-0.148,-0.089,0.988,-0.012,-0.014,0.000,0.000,0.000,0.000,0.000,1,2,0,1,7,255,1020,200,381,1020
stim,2464,2464,0,745118.829,0.984,0.056,-0.065,-0.158,2315,1,161,2451,270,879,30,587,1,0.000,3,0,0.479,0.017,-0.080,-0.280,0.380,-0.146,-0.092,0.987,0.010,-0.014,0.000,0.000,0.000,0.000,0.000,1,2,0,1,7,255,1020,200,386,1020
stim,2464,2464,0,745123.830,0.984,0.056,-0.065,-0.158,2321,0,157,2460,268,875,27,588,1,0.000,3,0,0.166,0.018,0.160,0.020,-0.040,-0.145,-0.080,0.988,-0.012,-0.014,-0.006,0.000,0.000,0.000,0.000,1,2,0,1,7,255,1020,200,391,1020
stim,2464,2464,0,745128.829,0.984,0.056,-0.065,-0.158,2304,0,165,2432,267,886,26,587,1,0.000,3,0,0.134,0.039,0.040,0.080,-0.100,-0.146,-0.099,0.988,0.010,-0.038,-0.006,0.000,0.000,0.000,0.000,1,2,0,1,7,255,1020,200,396,1020
stim,2464,2464,0,745133.829,0.984,0.056,-0.065,-0.158,2312,0,163,2439,272,879,33,585,1,0.000,3,0,0.316,0.055,-0.080,-0.160,0.260,-0.147,-0.082,0.988,-0.012,0.054,-0.002,0.000,0.000,0.000,0.000,1,2,0,1,7,255,1020,200,401,1020
stim,2479,2479,0,745138.829,0.984,0.056,-0.065,-0.158,2317,0,159,2446,266,874,29,587,1,0.000,3,0,0.448,0.028,0.280,0.080,-0.340,-0.146,-0.085,0.988,-0.010,0.026,-0.002,0.000,0.000,0.000,0.000,1,2,0,1,7,255,1020,200,406,1020
stim,2479,2479,0,745143.829,0.984,0.056,-0.065,-0.158,2317,3,163,2451,267,875,29,587,1,0.000,3,0,0.264,0.028,-0.020,-0.040,0.260,-0.145,-0.100,0.990,-0.010,0.026,-0.002,0.000,0.000,0.000,0.000,1,2,0,1,7,255,1020,200,411,1020
stim,2479,2479,0,745148.829,0.984,0.056,-0.065,-0.158,2316,1,159,2458,270,883,27,591,1,0.000,3,0,0.247,0.028,-0.140,-0.040,0.200,-0.148,-0.077,0.985,-0.010,0.026,-0.004,0.000,0.000,0.000,0.000,1,2,0,1,7,255,1020,200,416,1020
stim,2479,2479,0,745153.829,0.984,0.056,-0.065,-0.158,2310,0,165,2453,275,884,33,593,1,0.000,3,0,0.539,0.010,0.280,0.020,-0.460,-0.146,-0.087,0.989,0.008,0.006,0.006,0.000,0.000,0.000,0.000,1,2,0,1,7,255,1020,200,421,1020
stim,2479,2479,0,745158.829,0.984,0.056,-0.065,-0.158,2309,1,157,2459,267,873,26,581,1,0.000,3,0,0.417,0.010,-0.140,-0.100,0.380,-0.144,-0.100,0.991,0.008,0.006,0.006,0.000,0.000,0.000,0.000,1,2,0,1,7,255,1020,200,426,1020
stim,2479,2479,0,745163.829,0.984,0.056,-0.065,-0.158,2313,2,156,2443,271,876,31,586,1,0.000,3,0,0.573,0.010,-0.220,-0.100,0.520,-0.150,-0.082,0.986,0.008,0.006,0.006,0.000,0.000,0.000,0.000,1,2,0,1,7,255,1020,200,431,1020
stim,2495,2495,0,745168.829,0.984,0.056,-0.065,-0.158,2317,0,164,2441,270,879,30,593,1,0.000,3,0,0.741,0.067,0.460,-0.040,-0.580,-0.150,-0.080,0.986,-0.052,0.042,-0.016,0.000,0.000,0.000,0.000,1,2,0,1,7,255,1020,200,436,1020
stim,2495,2495,0,745173.829,0.984,0.056,-0.065,-0.158,2297,0,164,2452,283,873,26,587,1,0.000,3,0,0.490,0.067,0.280,-0.040,-0.400,-0.143,-0.098,0.991,-0.052,0.042,-0.016,0.000,0.000,0.000,0.000,1,2,0,1,7,255,1020,200,441,1020
stim,2495,2495,0,745178.829,0.984,0.056,-0.065,-0.158,2311,0,161,2431,271,879,29,589,1,0.000,3,0,0.652,0.055,-0.280,-0.100,0.580,-0.144,-0.093,0.988,0.042,-0.036,0.002,0.000,0.000,0.000,0.000,1,2,0,1,7,255,1020,200,446,1020
stim,2495,2495,0,745183.829,0.984,0.056,-0.065,-0.158,2316,0,165,2438,273,875,26,595,1,0.000,3,0,0.308,0.055,0.220,0.080,0.200,-0.149,-0.079,0.985,0.042,-0.036,0.002,0.000,0.000,0.000,0.000,1,2,0,1,7,255,1020,200,451,1020
stim,2511,2511,0,745188.829,0.984,0.056,-0.065,-0.158,2313,0,160,2441,275,883,31,593,1,0.000,3,0,0.906,0.044,0.640,-0.040,-0.640,-0.146,-0.083,0.989,-0.014,0.042,0.002,0.000,0.000,0.000,0.000,1,2,0,1,7,255,1020,200,456,1020
stim,2511,2511,0,745193.829,0.984,0.056,-0.065,-0.158,2327,0,159,2455,275,878,28,587,1,0.000,3,0,0.286,0.044,0.040,-0.040,-0.280,-0.141,-0.096,0.991,-0.014,0.042,0.004,0.000,0.000,0.000,0.000,1,2,0,1,7,255,1020,200,461,1020
stim,2527,2527,0,745198.829,0.984,0.056,-0.065,-0.158,2321,0,158,2440,273,878,26,586,1,0.000,3,0,0.807,0.058,-0.400,-0.040,0.700,-0.143,-0.093,0.985,0.042,-0.040,0.004,0.000,0.000,0.000,0.000,1,2,0,1,7,255,1020,200,466,1020
stim,2527,2527,0,745203.829,0.984,0.056,-0.065,-0.158,2317,0,167,2443,262,880,29,589,1,0.000,3,0,0.547,0.058,0.220,0.020,0.500,-0.152,-0.083,0.984,0.042,-0.040,-0.026,0.000,0.000,0.000,0.000,1,2,0,1,7,255,1020,200,471,1020
stim,2527,2527,0,745208.829,0.984,0.056,-0.065,-0.158,2327,0,159,2445,269,879,27,587,1,0.000,3,0,0.788,0.056,0.460,0.020,-0.640,-0.151,-0.083,0.989,-0.054,0.016,-0.026,0.000,0.000,0.000,0.000,1,2,0,1,7,255,1020,200,476,1020
stim,2527,2527,0,745213.829,0.984,0.056,-0.065,-0.158,2303,0,160,2439,269,875,29,591,1,0.000,3,0,0.781,0.056,-0.020,0.020,-0.780,-0.143,-0.091,0.990,-0.054,0.016,0.010,0.000,0.000,0.000,0.000,1,2,0,1,7,255,1020,200,481,1020
stim,2559,2559,0,745218.829,0.984,0.056,-0.065,-0.158,2303,0,160,2449,255,883,27,591,1,0.000,3,0,0.467,0.051,-0.340,0.020,0.320,-0.140,-0.092,0.986,0.048,-0.016,0.010,0.000,0.000,0.000,0.000,1,2,0,1,7,255,1020,200,486,1020
stim,2559,2559,0,745223.830,0.984,0.056,-0.065,-0.158,2325,0,155,2446,268,883,35,587,1,0.000,3,0,1.002,0.054,0.040,-0.040,1.000,-0.147,-0.089,0.985,0.048,-0.024,-0.026,0.000,0.000,0.000,0.000,1,2,0,1,7,255,1020,200,491,1020
stim,2559,2559,0,745228.829,0.984,0.056,-0.065,-0.158,2311,0,158,2444,271,879,25,591,1,0.000,3,0,0.396,0.026,0.340,-0.040,0.200,-0.153,-0.087,0.988,-0.010,-0.024,-0.026,0.000,0.000,0.000,0.000,1,2,0,1,7,255,1020,200,496,1020
stim,2559,2559,0,745233.829,0.984,0.056,-0.065,-0.158,2317,0,165,2444,262,883,33,587,1,0.000,3,0,0.754,0.017,0.280,0.020,-0.700,-0.147,-0.087,0.989,-0.010,-0.014,0.008,0.000,0.000,0.000,0.000,1,2,0,1,7,255,1020,200,501,1020
stim,2559,2559,0,745238.829,0.984,0.056,-0.065,-0.158,2301,0,157,2457,259,876,30,587,1,0.000,3,0,0.738,0.010,0.220,0.080,-0.700,-0.141,-0.089,0.987,-0.010,0.000,0.008,0.000,0.000,0.000,0.000,1,2,0,1,7,255,1020,200,506,1020
stim,2559,2559,0,745243.829,0.984,0.056,-0.065,-0.158,2312,0,157,2451,264,875,33,584,1,0.000,3,0,0.341,0.056,0.220,0.020,0.260,-0.139,-0.089,0.989,0.056,0.000,0.004,0.000,0.000,0.000,0.000,1,2,0,1,7,255,1020,200,511,1020
stim,2559,2559,0,745248.829,0.984,0.056,-0.065,-0.158,2303,0,157,2444,255,879,28,589,1,0.000,3,0,0.885,0.056,-0.080,-0.040,0.880,-0.147,-0.088,0.988,0.056,0.000,0.004,0.000,0.000,0.000,0.000,1,2,0,1,7,255,1020,200,516,1020
stim,2576,2576,0,745253.829,0.984,0.056,-0.065,-0.158,2319,1,160,2443,266,887,37,587,1,0.000,3,0,0.494,0.008,-0.220,-0.040,0.440,-0.151,-0.086,0.987,-0.008,0.000,0.004,0.000,0.000,0.000,0.000,1,2,0,1,7,255,1020,200,521,1020
stim,2576,2576,0,745258.829,0.984,0.056,-0.065,-0.158,2319,0,160,2443,269,877,30,588,1,0.000,3,0,0.323,0.038,-0.140,0.080,-0.280,-0.150,-0.086,0.987,-0.038,0.000,-0.002,0.000,0.000,0.000,0.000,1,2,0,1,7,255,1020,200,526,1020
stim,2576,2576,0,745263.829,0.984,0.056,-0.065,-0.158,2303,1,159,2456,268,881,28,589,1,0.000,3,0,0.438,0.038,0.160,0.080,-0.400,-0.146,-0.088,0.988,-0.038,0.000,-0.002,0.000,0.000,0.000,0.000,1,2,0,1,7,255,1020,200,531,1020
stim,2591,2591,0,745268.829,0.984,0.056,-0.065,-0.158,2327,0,165,2430,264,883,36,593,1,0.000,3,0,0.060,0.004,0.040,0.020,-0.040,-0.144,-0.088,0.991,0.004,0.000,0.002,0.000,0.000,0.000,0.000,1,2,0,1,7,255,1020,200,536,1020
stim,2591,2591,0,745273.829,0.984,0.056,-0.065,-0.158,2301,0,157,2453,268,881,27,589,1,0.000,3,0,0.482,0.007,-0.280,-0.100,0.380,-0.146,-0.087,0.990,0.004,0.006,0.022,0.000,0.000,0.000,0.000,1,2,0,1,7,255,1020,200,541,1020
stim,2609,2609,0,745278.829,0.984,0.056,-0.065,-0.158,2314,0,159,2439,277,885,27,587,1,0.000,3,0,0.477,0.006,-0.340,-0.100,0.320,-0.149,-0.089,0.988,0.000,0.006,0.022,0.000,0.000,0.000,0.000,1,2,0,1,7,255,1020,200,546,1020
stim,2609,2609,0,745283.829,0.984,0.056,-0.065,-0.158,2317,0,161,2442,267,877,33,584,1,0.000,3,0,0.104,0.027,-0.020,-0.100,0.020,-0.149,-0.090,0.985,-0.020,-0.018,0.006,0.000,0.000,0.000,0.000,1,2,0,1,7,255,1020,200,551,1020
stim,2609,2609,0,745288.829,0.984,0.056,-0.065,-0.158,2315,0,165,2443,269,877,27,593,1,0.000,3,0,0.327,0.030,0.220,-0.100,-0.220,-0.147,-0.090,0.988,-0.020,-0.022,0.002,0.000,0.000,0.000,0.000,1,2,0,1,7,255,1020,200,556,1020
stim,2609,2609,0,745293.829,0.984,0.056,-0.065,-0.158,2322,0,165,2443,270,883,39,583,1,0.000,3,0,0.368,0.022,0.340,-0.100,-0.100,-0.146,-0.089,0.990,-0.004,-0.022,0.002,0.000,0.000,0.000,0.000,1,2,0,1,7,255,1020,200,561,1020
stim,2609,2609,0,745298.829,0.984,0.056,-0.065,-0.158,2323,0,159,2441,268,879,33,586,1,0.000,3,0,0.230,0.013,0.160,-0.160,-0.040,-0.146,-0.086,0.991,-0.004,-0.012,0.022,0.000,0.000,0.000,0.000,1,2,0,1,7,255,1020,200,566,1020
stim,2623,2623,0,745303.829,0.984,0.056,-0.065,-0.158,2313,2,165,2449,264,880,28,587,1,0.000,3,0,0.069,0.020,0.040,-0.040,-0.040,-0.147,-0.085,0.989,-0.004,0.020,0.022,0.000,0.000,0.000,0.000,1,2,0,1,7,255,1020,200,571,1020
stim,2655,2655,0,745308.829,0.984,0.056,-0.065,-0.158,2299,0,156,2431,269,875,29,584,1,0.000,3,0,0.227,0.023,0.040,-0.040,-0.220,-0.147,-0.086,0.988,-0.012,0.020,0.006,0.000,0.000,0.000,0.000,1,2,0,1,7,255,1020,200,576,1020
stim,2655,2655,0,745313.829,0.984,0.056,-0.065,-0.158,2315,0,160,2453,262,887,28,586,1,0.000,3,0,0.300,0.016,0.100,-0.040,-0.280,-0.147,-0.087,0.989,-0.012,0.010,0.006,0.000,0.000,0.000,0.000,1,2,0,1,7,255,1020,200,581,1020
stim,2655,2655,0,745318.829,0.984,0.056,-0.065,-0.158,2312,3,160,2445,263,876,30,589,1,0.000,3,0,0.413,0.012,0.100,0.020,-0.400,-0.146,-0.086,0.989,-0.006,0.010,0.006,0.000,0.000,0.000,0.000,1,2,0,1,7,255,1020,200,586,1020
stim,2655,2655,0,745323.830,0.984,0.056,-0.065,-0.158,2322,0,163,2452,263,888,31,589,1,0.000,3,0,0.408,0.007,-0.080,0.020,-0.400,-0.146,-0.087,0.989,-0.006,0.004,0.006,0.000,0.000,0.000,0.000,1,2,0,1,7,255,1020,200,591,1020
stim,2655,2655,0,745328.829,0.984,0.056,-0.065,-0.158,2303,0,160,2453,268,882,31,589,1,0.000,3,0,0.395,0.004,-0.200,0.020,-0.340,-0.146,-0.087,0.988,-0.002,0.004,0.006,0.000,0.000,0.000,0.000,1,2,0,1,7,255,1020,200,596,1020
stim,2655,2655,0,745333.829,0.984,0.056,-0.065,-0.158,2313,0,163,2451,268,883,39,585,1,0.000,3,0,0.396,0.004,-0.280,0.020,-0.280,-0.146,-0.089,0.986,0.002,0.004,-0.004,0.000,0.000,0.000,0.000,1,2,0,1,7,255,1020,200,601,1020
stim,2655,2655,0,745338.829,0.984,0.056,-0.065,-0.158,2315,0,164,2443,269,881,27,583,1,0.000,3,0,0.298,0.016,-0.200,0.020,-0.220,-0.146,-0.089,0.986,0.002,-0.016,-0.016,0.000,0.000,0.000,0.000,1,2,0,1,7,255,1020,200,606,1020
