condition_phase,condition_phase_elapsed_ms,condition_elapsed_ms,is_stimulation_on,t_ms,R_q0,R_q1,R_q2,R_q3,R_heel1,R_mid1,R_fore1,R_heel2,R_fore3,R_mid2,R_fore4,R_fore2,R_cadence,R_speed,R_steps,R_zupt,R_gyroNorm,R_accH,R_gyro_x,R_gyro_y,R_gyro_z,R_acc_x,R_acc_y,R_acc_z,R_nav_ax,R_nav_ay,R_nav_az,R_stepVel,R_stepVelj,R_stepDispRaw,R_stepDispZUPT,R_gaitEvent,R_motorMode,R_motorActive,R_motorAlignment,R_motorRegionMask,R_motorAmplitude,R_motorIntervalMs,R_motorDurationMs,R_motorPhaseMs,R_motorCycleMs
stim,33,33,0,124996.369,0.601,0.048,0.064,-0.795,3200,559,1510,3604,445,1513,569,4095,42,0.097,4,1,21.982,0.114,-21.900,1.880,0.260,-0.209,-0.154,0.980,-0.068,-0.092,0.124,0.310,0.102,0.841,0.150,2,2,0,2,7,255,1728,200,0,0
stim,33,33,0,125001.369,0.601,0.049,0.064,-0.795,3195,584,1483,3593,485,1560,585,4095,42,0.097,4,1,19.234,0.163,-19.100,2.000,1.060,-0.202,-0.139,0.982,-0.134,-0.092,0.096,0.000,0.000,0.841,0.150,2,2,0,2,7,255,1728,200,0,0
stim,33,33,0,125006.369,0.601,0.049,0.065,-0.795,3208,548,1513,3605,560,1565,585,4095,42,0.000,4,1,20.150,0.246,-19.620,4.060,2.140,-0.192,-0.140,0.978,-0.238,-0.064,0.096,0.000,0.000,0.841,0.150,2,2,0,2,7,255,1728,200,0,0
stim,33,33,0,125011.369,0.601,0.050,0.065,-0.795,3213,590,1497,3591,553,1523,594,4095,42,0.000,4,1,16.763,0.240,-16.340,3.700,0.560,-0.191,-0.157,0.971,-0.238,0.028,0.040,0.000,0.000,0.841,0.150,2,2,0,2,7,255,1728,200,0,0
stim,34,34,0,125016.370,0.600,0.050,0.066,-0.795,3211,564,1491,3603,538,1557,601,4095,42,0.000,4,1,18.618,0.250,-18.080,4.360,0.860,-0.190,-0.116,0.957,-0.248,0.028,-0.002,0.000,0.000,0.841,0.150,2,2,0,2,7,255,1728,200,0,0
stim,34,34,0,125021.369,0.600,0.050,0.066,-0.796,3218,587,1499,3613,605,1582,595,4095,42,0.000,4,1,23.795,0.229,-23.180,4.540,2.880,-0.192,-0.139,0.953,-0.228,-0.018,-0.198,0.000,0.000,0.841,0.150,2,2,0,2,7,255,1728,200,0,0
stim,34,34,0,125026.369,0.600,0.051,0.067,-0.796,3197,559,1491,3607,652,1553,595,4095,42,0.000,4,1,21.213,0.229,-20.680,4.580,-1.160,-0.183,-0.153,0.967,-0.228,-0.018,-0.198,0.000,0.000,0.841,0.150,2,2,0,2,7,255,1728,200,0,0
stim,34,34,0,125031.369,0.600,0.051,0.067,-0.796,3206,555,1512,3612,661,1549,585,4095,42,0.000,4,1,22.398,0.229,-21.680,5.480,-1.280,-0.192,-0.129,0.970,-0.228,-0.018,-0.054,0.000,0.000,0.841,0.150,2,2,0,2,7,255,1728,200,0,0
stim,80,80,0,125036.369,0.600,0.052,0.067,-0.796,3205,524,1531,3597,651,1543,585,4095,42,0.000,4,1,22.068,0.273,-21.280,5.660,-1.460,-0.194,-0.140,0.965,-0.272,-0.024,-0.054,0.000,0.000,0.841,0.150,2,2,0,2,7,255,1728,200,0,0
stim,80,80,0,125041.369,0.600,0.053,0.068,-0.796,3211,538,1556,3603,695,1533,572,4095,42,0.000,4,1,26.706,0.273,-25.620,7.540,0.000,-0.198,-0.142,0.959,-0.272,-0.028,-0.076,0.000,0.000,0.841,0.150,2,2,0,2,7,255,1728,200,0,0
stim,80,80,0,125046.369,0.600,0.053,0.069,-0.796,3208,537,1545,3599,737,1525,573,4087,42,0.000,4,1,25.209,0.256,-24.600,5.460,-0.720,-0.200,-0.162,0.956,-0.254,-0.032,-0.114,0.000,0.000,0.841,0.150,2,2,0,2,7,255,1728,200,0,0
stim,80,80,0,125051.370,0.599,0.054,0.069,-0.796,3203,537,1524,3596,733,1531,588,4093,42,0.000,4,1,26.804,0.261,-25.460,8.320,-1.020,-0.205,-0.144,0.961,-0.254,-0.060,-0.114,0.000,0.000,0.841,0.150,2,2,0,2,7,255,1728,200,0,0
stim,96,96,0,125056.369,0.599,0.055,0.070,-0.796,3213,547,1555,3613,704,1542,585,4073,42,0.000,4,1,27.893,0.103,-26.200,9.520,-0.960,-0.204,-0.166,0.973,-0.098,-0.032,-0.084,0.000,0.000,0.841,0.150,2,2,0,2,7,255,1728,200,0,0
stim,96,96,0,125061.369,0.599,0.056,0.070,-0.796,3218,549,1547,3603,712,1517,569,4091,42,0.000,4,1,27.289,0.243,-25.780,8.940,0.380,-0.209,-0.152,0.964,-0.212,-0.118,-0.034,0.000,0.000,0.841,0.150,2,2,0,2,7,255,1728,200,0,0
stim,96,96,0,125066.369,0.599,0.057,0.071,-0.796,3209,547,1575,3603,729,1519,557,4095,42,0.000,4,1,29.895,0.140,-28.240,9.600,2.020,-0.206,-0.164,0.960,-0.126,-0.062,-0.034,0.000,0.000,0.841,0.150,2,2,0,2,7,255,1728,200,0,0
stim,96,96,0,125071.369,0.598,0.058,0.071,-0.796,3215,542,1585,3611,727,1492,544,4048,42,0.000,4,1,30.970,0.140,-29.340,9.640,2.320,-0.198,-0.169,0.958,-0.126,-0.062,-0.052,0.000,0.000,0.841,0.150,2,2,0,2,7,255,1728,200,0,0
stim,96,96,0,125076.369,0.598,0.059,0.072,-0.796,3208,555,1573,3603,728,1487,530,3978,42,0.000,4,1,31.767,0.127,-30.200,9.680,1.840,-0.193,-0.166,0.956,-0.126,0.018,-0.086,0.000,0.000,0.841,0.150,2,2,0,2,7,255,1728,200,0,0
stim,96,96,0,125081.369,0.598,0.060,0.073,-0.796,3213,542,1551,3588,747,1505,485,4056,42,0.000,4,1,32.133,0.169,-30.500,9.960,1.760,-0.199,-0.157,0.957,-0.168,0.018,-0.114,0.000,0.000,0.841,0.150,2,2,0,2,7,255,1728,200,0,0
stim,96,96,0,125086.369,0.598,0.061,0.073,-0.796,3200,518,1573,3599,721,1524,475,4025,42,0.000,4,1,33.982,0.258,-32.280,10.440,1.940,-0.198,-0.158,0.954,-0.258,-0.012,-0.116,0.000,0.000,0.841,0.150,2,2,0,2,7,255,1728,200,0,0
stim,96,96,0,125091.369,0.597,0.062,0.074,-0.796,3199,535,1561,3579,713,1519,475,4006,42,0.000,4,1,33.538,0.262,-31.900,10.180,1.880,-0.196,-0.159,0.966,-0.262,-0.012,-0.114,0.000,0.000,0.841,0.150,2,2,0,2,7,255,1728,200,0,0
stim,96,96,0,125096.369,0.597,0.063,0.075,-0.796,3197,626,1587,3593,723,1553,471,4085,42,0.000,4,1,32.806,0.264,-31.220,9.900,1.880,-0.197,-0.177,0.959,-0.262,0.032,-0.052,0.000,0.000,0.841,0.150,2,2,0,2,7,255,1728,200,0,0
stim,96,96,0,125101.370,0.597,0.064,0.075,-0.796,3213,614,1560,3595,717,1513,468,3999,42,0.000,4,1,30.796,0.312,-29.040,10.140,1.500,-0.203,-0.160,0.960,-0.310,0.032,-0.052,0.000,0.000,0.841,0.150,2,2,0,2,7,255,1728,200,0,0
stim,113,113,0,125106.369,0.596,0.065,0.076,-0.797,3213,603,1567,3578,698,1555,456,4039,42,0.000,4,1,30.357,0.152,-28.240,11.020,1.620,-0.209,-0.186,0.958,-0.150,-0.024,-0.052,0.000,0.000,0.841,0.150,2,2,0,2,7,255,1728,200,0,0
stim,113,113,0,125111.369,0.596,0.066,0.076,-0.797,3215,605,1573,3599,649,1559,429,4061,42,0.000,4,1,27.946,0.121,-26.160,9.600,2.120,-0.214,-0.184,0.964,-0.116,-0.036,-0.022,0.000,0.000,0.841,0.150,2,2,0,2,7,255,1728,200,0,0
stim,113,113,0,125116.369,0.596,0.067,0.077,-0.797,3217,571,1575,3591,709,1561,427,3959,42,0.000,4,1,27.168,0.084,-25.020,10.200,2.840,-0.219,-0.212,0.958,-0.074,-0.040,0.042,0.000,0.000,0.841,0.150,2,2,0,2,7,255,1728,200,0,0
stim,113,113,0,125121.369,0.595,0.067,0.078,-0.797,3213,569,1547,3595,738,1546,401,3987,42,0.000,4,1,23.519,0.155,-21.560,8.900,3.020,-0.220,-0.227,0.975,0.150,-0.040,0.052,0.000,0.000,0.841,0.150,2,2,0,2,7,255,1728,200,0,0
stim,47,47,0,125126.369,0.595,0.068,0.078,-0.797,3207,565,1523,3593,647,1564,413,3939,42,0.000,4,1,21.747,0.224,-19.500,9.180,2.900,-0.230,-0.246,0.959,0.220,-0.040,0.156,0.000,0.000,0.841,0.150,2,2,0,2,7,255,1296,250,0,1296
stim,47,47,0,125131.369,0.595,0.069,0.078,-0.797,3205,579,1505,3576,627,1568,409,3977,42,0.000,4,1,18.255,0.372,-16.400,7.460,2.940,-0.230,-0.246,0.975,0.372,-0.016,0.242,0.000,0.000,0.841,0.150,2,2,0,2,7,255,1296,250,0,1296
stim,47,47,0,125136.370,0.595,0.070,0.079,-0.797,3208,561,1513,3581,597,1579,396,4009,42,0.000,4,1,16.260,0.428,-14.360,7.260,2.340,-0.226,-0.265,0.965,0.428,-0.016,0.236,0.000,0.000,0.841,0.150,2,2,0,2,7,255,1296,250,3,1296
stim,47,47,0,125141.369,0.594,0.070,0.079,-0.797,3193,532,1523,3587,603,1578,411,3951,42,0.000,4,1,12.081,0.404,-10.540,5.280,2.640,-0.233,-0.252,0.971,0.404,-0.016,0.274,0.000,0.000,0.841,0.150,2,2,0,2,7,255,1296,250,8,1296
stim,47,47,0,125146.369,0.594,0.071,0.079,-0.797,3196,491,1491,3593,605,1592,411,3937,42,0.000,4,1,10.848,0.404,-7.840,6.440,3.840,-0.229,-0.250,0.966,0.404,0.000,0.236,0.000,0.000,0.841,0.150,2,2,0,2,7,255,1296,250,13,1296
stim,47,47,0,125151.369,0.594,0.071,0.080,-0.797,3210,531,1477,3576,616,1616,420,3933,42,0.000,4,1,9.236,0.378,-5.680,3.980,6.100,-0.217,-0.242,0.975,0.378,0.000,0.248,0.000,0.000,0.841,0.150,2,2,0,2,7,255,1296,250,18,1296
stim,47,47,0,125156.369,0.594,0.071,0.080,-0.798,3211,538,1484,3580,619,1619,410,3861,42,0.000,4,1,8.386,0.263,-0.660,5.000,6.700,-0.201,-0.224,0.977,0.240,0.108,0.214,0.000,0.000,0.841,0.150,2,2,0,2,7,255,1296,250,23,1296
stim,47,47,0,125161.369,0.594,0.071,0.079,-0.798,3209,503,1475,3595,667,1613,395,1056,42,0.000,4,1,7.636,0.247,2.320,4.520,5.700,-0.201,-0.233,0.971,0.134,0.208,0.188,0.000,0.000,0.841,0.150,2,2,0,2,7,255,1296,250,28,1296
stim,47,47,0,125166.369,0.594,0.071,0.079,-0.798,3199,477,1489,3589,676,1619,391,1063,42,0.000,4,1,9.451,0.259,7.200,4.800,3.800,-0.205,-0.241,0.981,0.134,0.222,0.188,0.000,0.000,0.841,0.150,2,2,0,2,7,255,1296,250,33,1296
stim,47,47,0,125171.369,0.594,0.071,0.079,-0.798,3207,501,1447,3575,604,1608,383,1057,42,0.000,4,1,10.363,0.290,9.260,4.560,0.920,-0.225,-0.253,0.962,0.186,0.222,0.162,0.000,0.000,0.841,0.150,2,2,0,2,7,255,1296,250,38,1296
stim,48,48,0,125176.369,0.594,0.071,0.078,-0.798,3208,487,1460,3590,585,1644,379,1052,42,0.000,4,1,11.985,0.355,11.140,4.420,0.060,-0.245,-0.243,0.960,0.352,0.048,0.164,0.000,0.000,0.841,0.150,2,2,0,2,7,255,1296,250,43,1296
stim,48,48,0,125181.369,0.594,0.071,0.078,-0.798,3217,437,1451,3580,645,1638,377,1063,42,0.000,4,1,10.789,0.387,10.260,3.080,1.280,-0.253,-0.232,0.949,0.352,-0.160,0.162,0.000,0.000,0.841,0.150,2,2,0,2,7,255,1296,250,48,1296
stim,65,65,0,125186.369,0.594,0.071,0.078,-0.798,3221,439,1460,3603,584,1635,380,1047,42,0.000,4,1,10.456,0.345,9.700,2.820,2.700,-0.234,-0.229,0.958,0.306,-0.160,0.086,0.000,0.000,0.841,0.150,2,2,0,2,7,255,1296,250,53,1296
stim,65,65,0,125191.369,0.594,0.071,0.077,-0.798,3225,421,1427,3595,561,1639,389,1043,42,0.000,4,1,10.912,0.285,9.980,0.800,4.340,-0.240,-0.208,0.962,0.212,-0.190,0.086,0.000,0.000,0.841,0.150,2,2,0,2,7,255,1296,250,58,1296
stim,143,143,0,125196.370,0.594,0.070,0.077,-0.798,3221,380,1395,3591,571,1622,412,1019,42,0.000,4,1,11.963,0.094,11.240,1.840,3.660,-0.217,-0.206,0.977,0.032,-0.088,0.096,0.000,0.000,0.841,0.150,2,2,0,2,7,255,1296,250,63,1296
stim,143,143,0,125201.369,0.594,0.070,0.076,-0.798,3235,439,1385,3595,571,1637,412,1014,42,0.000,4,1,13.129,0.043,12.860,0.920,2.480,-0.224,-0.204,0.971,-0.034,-0.026,0.134,0.000,0.000,0.841,0.150,2,2,0,2,7,255,1296,250,68,1296
stim,143,143,0,125206.369,0.594,0.069,0.076,-0.798,3229,359,1337,3615,583,1652,403,963,42,0.000,4,1,14.304,0.047,14.180,1.580,1.020,-0.220,-0.210,0.972,-0.034,0.032,0.142,0.000,0.000,0.841,0.150,2,2,0,2,7,255,1296,250,73,1296
stim,143,143,0,125211.369,0.594,0.069,0.075,-0.798,3226,365,1352,3611,529,1629,408,956,42,0.000,4,1,14.437,0.037,14.400,0.980,0.340,-0.229,-0.207,0.959,0.026,-0.026,0.134,0.000,0.000,0.841,0.150,2,2,0,2,7,255,1296,250,78,1296
stim,143,143,0,125216.369,0.594,0.069,0.074,-0.798,3231,359,1354,3609,500,1632,400,968,42,0.000,4,1,12.204,0.088,12.180,0.660,-0.400,-0.229,-0.190,0.948,0.026,-0.084,0.038,0.000,0.000,0.841,0.150,2,2,0,2,7,255,1296,250,83,1296
stim,143,143,0,125221.369,0.594,0.068,0.074,-0.798,3245,359,1337,3605,517,1628,392,933,42,0.000,4,1,11.960,0.119,11.960,0.060,-0.020,-0.234,-0.208,0.967,0.058,-0.104,0.038,0.000,0.000,0.841,0.150,2,2,0,2,7,255,1296,250,88,1296
stim,144,144,0,125226.369,0.595,0.068,0.073,-0.798,3232,360,1333,3621,499,1610,367,923,42,0.000,4,1,10.914,0.144,10.900,0.480,0.280,-0.241,-0.177,0.964,-0.054,-0.134,0.048,0.000,0.000,0.841,0.150,2,2,0,2,7,255,1296,250,93,1296
stim,144,144,0,125231.369,0.595,0.067,0.073,-0.798,3232,361,1328,3611,498,1605,372,909,42,0.000,4,1,11.488,0.160,11.420,-0.500,1.140,-0.233,-0.189,0.992,-0.122,-0.104,0.124,0.000,0.000,0.841,0.150,2,2,0,2,7,255,1296,250,98,1296
stim,144,144,0,125236.369,0.595,0.067,0.072,-0.798,3244,391,1321,3624,501,1623,373,889,42,0.000,4,1,12.754,0.152,12.740,0.480,0.340,-0.226,-0.202,0.964,-0.122,-0.090,0.066,0.000,0.000,0.841,0.150,2,2,0,2,7,255,1296,250,103,1296
stim,144,144,0,125241.369,0.595,0.067,0.072,-0.798,3239,425,1333,3621,520,1608,393,895,42,0.000,4,1,12.932,0.044,12.900,-0.200,-0.880,-0.226,-0.195,0.969,-0.006,-0.044,0.092,0.000,0.000,0.841,0.150,2,2,0,2,7,255,1296,250,108,1296
stim,144,144,0,125246.369,0.595,0.066,0.071,-0.798,3253,347,1349,3619,477,1595,366,4095,42,0.000,4,1,10.759,0.044,10.620,-1.480,-0.880,-0.241,-0.184,0.941,0.006,-0.044,0.066,0.000,0.000,0.841,0.150,2,2,0,2,7,255,1296,250,113,1296
stim,144,144,0,125251.369,0.595,0.066,0.071,-0.798,3245,373,1293,3623,461,1545,380,4095,42,0.000,4,1,8.295,0.186,8.220,-0.980,-0.520,-0.237,-0.180,0.962,-0.006,-0.186,0.024,0.000,0.000,0.841,0.150,2,2,0,2,7,255,1296,250,118,1296
stim,144,144,0,125256.369,0.595,0.066,0.071,-0.798,3251,365,1289,3611,475,1494,393,4095,42,0.000,4,1,7.648,0.187,7.480,-1.460,-0.640,-0.231,-0.191,0.977,-0.014,-0.186,0.024,0.000,0.000,0.841,0.150,2,2,0,2,7,255,1296,250,123,1296
stim,144,144,0,125261.369,0.596,0.065,0.070,-0.798,3253,371,1273,3629,459,1499,395,4095,42,0.000,4,1,8.599,0.075,8.320,-1.400,-1.660,-0.229,-0.193,0.982,-0.014,-0.074,0.174,0.000,0.000,0.841,0.150,2,2,0,2,7,255,1296,250,128,1296
stim,144,144,0,125266.369,0.596,0.065,0.070,-0.797,3251,371,1255,3613,372,1484,394,4095,42,0.000,4,1,9.827,0.043,9.280,-1.580,-2.820,-0.230,-0.200,0.977,-0.010,-0.042,0.180,0.000,0.000,0.841,0.150,2,2,0,2,7,255,1296,250,133,1296
stim,144,144,0,125271.369,0.596,0.065,0.070,-0.797,3244,333,1223,3612,381,1468,403,4095,42,0.000,4,1,10.108,0.089,9.260,-1.700,-3.680,-0.233,-0.200,0.965,0.078,-0.042,0.180,0.000,0.000,0.841,0.150,2,2,0,2,7,255,1296,250,138,1296
stim,144,144,0,125276.369,0.596,0.064,0.070,-0.797,3231,294,1210,3611,364,1464,397,927,42,0.000,4,1,9.476,0.151,8.200,-2.060,-4.280,-0.235,-0.200,0.959,0.120,-0.092,0.082,0.000,0.000,0.841,0.150,2,2,0,2,7,255,1296,250,143,1296
stim,144,144,0,125281.369,0.596,0.064,0.070,-0.797,3237,275,1210,3603,360,1457,391,931,42,0.000,4,1,8.598,0.174,7.020,-2.180,-4.460,-0.231,-0.205,0.963,0.148,-0.092,0.066,0.000,0.000,0.841,0.150,2,2,0,2,7,255,1296,250,148,1296
stim,176,176,0,125286.369,0.597,0.064,0.070,-0.797,3227,254,1171,3607,361,1447,392,4095,42,0.000,4,1,8.269,0.182,6.460,-2.420,-4.560,-0.227,-0.207,0.965,0.172,-0.058,0.066,0.000,0.000,0.841,0.150,2,2,0,2,7,255,1296,250,153,1296
stim,176,176,0,125291.370,0.597,0.064,0.069,-0.797,3230,292,1147,3548,359,1445,395,4095,42,0.000,4,1,8.336,0.173,6.500,-2.540,-4.560,-0.223,-0.201,0.958,0.172,-0.016,0.066,0.000,0.000,0.841,0.150,2,2,0,2,7,255,1296,250,158,1296
stim,176,176,0,125296.369,0.597,0.063,0.069,-0.797,3221,263,1171,3593,353,1427,407,4095,42,0.000,4,1,8.340,0.142,6.560,-2.540,-4.480,-0.219,-0.190,0.952,0.142,-0.008,-0.006,0.000,0.000,0.841,0.150,2,2,0,2,7,255,1296,250,163,1296
stim,176,176,0,125301.369,0.597,0.063,0.069,-0.797,3213,248,1181,3607,345,1334,405,4095,42,0.000,4,1,8.398,0.054,6.600,-2.520,-4.540,-0.215,-0.183,0.952,0.054,-0.002,-0.092,0.000,0.000,0.841,0.150,2,2,0,2,7,255,1296,250,168,1296
stim,193,193,0,125306.369,0.598,0.063,0.069,-0.796,3209,255,1182,3607,344,1375,407,4095,42,0.000,4,1,8.703,0.018,6.780,-2.400,-4.900,-0.213,-0.182,0.952,-0.018,0.002,-0.120,0.000,0.000,0.841,0.150,2,2,0,2,7,255,1296,250,173,1296
stim,193,193,0,125311.369,0.598,0.062,0.069,-0.796,3191,173,1162,3579,355,1416,411,873,42,0.000,4,1,9.351,0.025,7.300,-2.280,-5.380,-0.211,-0.188,0.957,-0.018,0.018,-0.120,0.000,0.000,0.841,0.150,2,2,0,2,7,255,1296,250,178,1296
stim,194,194,0,125316.369,0.598,0.062,0.069,-0.796,3195,159,1145,3595,360,1382,410,883,42,0.000,4,1,10.064,0.028,7.960,-2.280,-5.720,-0.215,-0.189,0.958,0.022,0.018,-0.066,0.000,0.000,0.841,0.150,2,2,0,2,7,255,1296,250,183,1296
stim,194,194,0,125321.369,0.598,0.061,0.069,-0.796,3189,173,1136,3603,345,1367,423,4095,42,0.000,4,1,10.614,0.051,8.680,-2.440,-5.600,-0.219,-0.187,0.957,0.048,0.016,-0.048,0.000,0.000,0.841,0.150,2,2,0,2,7,255,1296,250,188,1296
stim,195,195,0,125326.369,0.599,0.061,0.068,-0.796,3183,175,1113,3590,359,1335,427,4095,42,0.000,4,1,10.773,0.056,9.220,-2.500,-4.980,-0.222,-0.181,0.958,0.048,-0.028,-0.048,0.000,0.000,0.841,0.150,2,2,0,2,7,255,1296,250,193,1296
stim,195,195,0,125331.369,0.599,0.061,0.068,-0.796,3184,171,1069,3595,357,1319,427,4095,42,0.000,4,1,10.806,0.067,9.680,-2.500,-4.100,-0.221,-0.179,0.958,0.010,-0.066,-0.048,0.000,0.000,0.841,0.150,2,2,0,2,7,255,1296,250,198,1296
stim,256,256,0,125336.369,0.599,0.060,0.068,-0.796,3175,167,1095,3592,320,1327,427,4095,42,0.000,4,1,11.135,0.067,10.220,-2.620,-3.560,-0.219,-0.182,0.963,0.010,-0.066,-0.044,0.000,0.000,0.841,0.150,2,2,0,2,7,255,1296,250,203,1296
stim,256,256,0,125341.369,0.599,0.060,0.068,-0.795,3175,184,1080,3592,341,1303,441,4095,42,0.000,4,1,11.868,0.033,11.040,-2.620,-3.480,-0.217,-0.184,0.965,0.014,-0.030,-0.004,0.000,0.000,0.841,0.150,2,2,0,2,7,255,1296,250,208,1296
stim,256,256,0,125346.369,0.600,0.059,0.067,-0.795,3182,135,986,3590,363,1285,436,4095,42,0.000,4,1,12.747,0.033,11.940,-2.720,-3.540,-0.217,-0.184,0.964,0.032,-0.006,0.010,0.000,0.000,0.841,0.150,2,2,0,2,7,255,1296,250,213,1296
stim,256,256,0,125351.369,0.600,0.059,0.067,-0.795,3167,154,1000,3571,343,1252,436,4095,42,0.000,4,1,13.594,0.035,12.780,-2.840,-3.660,-0.219,-0.180,0.960,0.034,-0.006,0.010,0.000,0.000,0.841,0.150,2,2,0,2,7,255,1296,250,218,1296
stim,256,256,0,125356.369,0.600,0.058,0.066,-0.795,3171,89,1001,3591,341,1229,426,957,42,0.000,4,1,13.812,0.054,12.980,-3.080,-3.580,-0.220,-0.162,0.956,0.034,-0.042,-0.030,0.000,0.000,0.841,0.150,2,2,0,2,7,255,1296,250,223,1296
stim,256,256,0,125361.369,0.600,0.058,0.066,-0.795,3171,135,1011,3575,339,1238,383,4095,42,0.000,4,1,13.878,0.147,13.080,-3.020,-3.520,-0.218,-0.152,0.957,-0.100,-0.108,-0.098,0.000,0.000,0.841,0.150,2,2,0,2,7,255,1296,250,228,1296
stim,256,256,0,125366.369,0.601,0.057,0.065,-0.795,3161,1,987,3587,343,1252,368,4095,42,0.000,4,1,14.138,0.206,13.420,-2.960,-3.320,-0.212,-0.154,0.963,-0.176,-0.108,-0.098,0.000,0.000,0.841,0.150,2,2,0,2,7,255,1296,250,233,1296
stim,256,256,0,125371.369,0.601,0.056,0.065,-0.795,3160,2,991,3568,327,1213,387,4095,42,0.000,4,1,14.813,0.180,14.060,-2.700,-3.800,-0.209,-0.165,0.970,-0.176,-0.040,-0.064,0.000,0.000,0.841,0.150,2,2,0,2,7,255,1296,250,238,1296
stim,256,256,0,125376.369,0.601,0.056,0.065,-0.795,3158,0,967,3575,327,1131,405,4095,42,0.000,4,1,16.133,0.082,15.200,-2.640,-4.720,-0.208,-0.174,0.975,-0.080,0.020,0.014,0.000,0.000,0.841,0.150,2,2,0,2,7,255,1296,250,243,1296
stim,256,256,0,125381.369,0.602,0.055,0.064,-0.794,3151,0,955,3575,331,1127,407,4095,42,0.000,4,1,18.011,0.022,16.880,-2.680,-5.680,-0.213,-0.177,0.975,0.004,0.022,0.076,0.000,0.000,0.841,0.150,2,2,0,2,7,255,1296,250,248,1296
stim,257,257,0,125386.369,0.602,0.055,0.064,-0.794,3140,0,949,3577,337,1000,424,4095,42,0.000,4,1,19.376,0.033,18.120,-2.320,-6.460,-0.213,-0.172,0.977,0.024,0.022,0.088,0.000,0.000,0.841,0.150,2,2,0,2,7,255,1296,250,253,1296
stim,257,257,0,125391.369,0.602,0.054,0.063,-0.794,3133,0,919,3591,331,1035,442,4095,42,0.000,4,1,21.514,0.060,20.220,-2.740,-6.820,-0.219,-0.177,0.975,0.058,0.016,0.100,0.000,0.000,0.841,0.150,2,2,0,2,7,255,1296,250,258,1296
stim,263,263,0,125396.370,0.603,0.053,0.063,-0.794,3133,0,862,3575,327,1044,459,4095,42,0.000,4,1,21.703,0.111,20.560,-2.120,-6.620,-0.219,-0.178,0.978,0.108,-0.024,0.104,0.000,0.000,0.841,0.150,2,2,0,2,7,255,1296,250,263,1296
stim,263,263,0,125401.369,0.603,0.053,0.062,-0.793,3119,0,800,3575,309,1000,477,4095,42,0.000,4,1,22.121,0.124,20.940,-2.980,-6.480,-0.218,-0.182,0.978,0.122,-0.024,0.126,0.000,0.000,0.841,0.150,2,2,0,2,7,255,1296,250,268,1296
stim,287,287,0,125406.369,0.604,0.052,0.061,-0.793,3107,0,711,3575,329,939,477,4095,42,0.000,4,1,22.427,0.172,21.200,-3.280,-6.540,-0.222,-0.178,0.974,0.170,-0.024,0.126,0.000,0.000,0.841,0.150,2,2,0,2,7,255,1296,250,273,1296
stim,287,287,0,125411.369,0.604,0.051,0.061,-0.793,3094,0,723,3576,300,923,468,4095,42,0.000,4,1,23.944,0.183,23.300,-0.640,-5.480,-0.226,-0.182,0.972,0.176,-0.050,0.098,0.000,0.000,0.841,0.150,2,2,0,2,7,255,1296,250,278,1296
stim,287,287,0,125416.369,0.604,0.051,0.060,-0.793,3087,0,713,3556,329,865,453,4095,42,0.000,4,1,27.797,0.205,27.100,3.500,-5.100,-0.242,-0.180,1.011,0.190,-0.078,0.098,0.000,0.000,0.841,0.150,2,2,0,2,7,255,1296,250,283,1296
stim,287,287,0,125421.369,0.605,0.050,0.059,-0.793,3062,0,665,3559,313,893,397,4095,42,0.000,4,1,28.029,0.247,27.900,0.380,-2.660,-0.238,-0.160,0.979,0.190,-0.158,0.142,0.000,0.000,0.841,0.150,2,2,0,2,7,255,1296,250,288,1296
stim,351,351,0,125426.369,0.605,0.049,0.058,-0.793,3040,0,670,3561,317,855,424,4095,42,0.000,4,1,27.142,0.247,27.100,1.000,-1.120,-0.228,-0.170,0.971,0.190,-0.158,0.142,0.000,0.000,0.841,0.150,2,2,0,2,7,255,1296,250,293,1296
stim,351,351,0,125431.369,0.605,0.049,0.057,-0.792,3023,0,663,3541,325,919,447,4095,42,0.000,4,1,25.055,0.219,25.040,0.260,-0.820,-0.222,-0.178,0.969,0.190,-0.108,0.058,0.000,0.000,0.841,0.150,2,2,0,2,7,255,1296,250,298,1296
stim,351,351,0,125436.369,0.606,0.048,0.056,-0.792,2998,0,615,3539,332,974,429,4095,42,0.000,4,1,23.492,0.196,23.460,0.500,-1.120,-0.221,-0.167,0.967,0.190,-0.048,0.038,0.000,0.000,0.841,0.150,2,2,0,2,7,255,1296,250,303,1296
stim,351,351,0,125441.369,0.606,0.048,0.056,-0.792,2973,0,599,3527,301,987,414,4095,42,0.000,4,1,23.000,0.194,22.860,1.660,-1.920,-0.224,-0.153,0.972,0.188,-0.048,0.036,0.000,0.000,0.841,0.150,2,2,0,2,7,255,1296,250,308,1296
stim,351,351,0,125446.369,0.606,0.047,0.055,-0.792,2936,0,601,3524,310,941,411,4095,42,0.000,4,1,20.429,0.119,20.380,1.420,0.040,-0.248,-0.130,0.965,0.070,-0.096,0.006,0.000,0.000,0.841,0.150,2,2,0,2,7,255,1296,250,313,1296
stim,351,351,0,125451.369,0.606,0.047,0.054,-0.792,2911,0,613,3491,307,809,441,4095,42,0.000,4,1,17.292,0.160,17.220,-0.040,1.580,-0.231,-0.165,0.952,0.070,-0.144,-0.012,0.000,0.000,0.841,0.150,2,2,0,2,7,255,1296,250,318,1296
stim,351,351,0,125456.369,0.606,0.047,0.054,-0.792,2871,0,581,3465,302,797,433,4095,42,0.000,4,1,14.359,0.304,14.320,1.040,0.220,-0.209,-0.193,0.952,0.268,-0.144,-0.120,0.000,0.000,0.841,0.150,2,2,0,2,7,255,1296,250,323,1296
stim,351,351,0,125461.369,0.607,0.046,0.054,-0.792,2836,0,573,3473,309,825,397,4095,42,0.000,4,1,14.112,0.394,13.320,1.480,-4.420,-0.188,-0.188,0.963,0.372,0.130,-0.120,0.000,0.000,0.841,0.150,2,2,0,2,7,255,1296,250,328,1296
stim,351,351,0,125466.369,0.607,0.046,0.053,-0.792,2789,0,529,3463,287,771,363,4095,42,0.000,4,1,18.574,0.475,14.820,2.640,-10.880,-0.187,-0.166,0.974,0.372,0.296,-0.074,0.000,0.000,0.841,0.150,2,2,0,2,7,255,1296,250,333,1296
stim,351,351,0,125471.369,0.608,0.046,0.053,-0.791,2729,0,505,3435,291,789,390,4095,42,0.000,4,1,24.376,0.332,17.100,4.020,-16.900,-0.189,-0.150,0.979,0.150,0.296,-0.002,0.000,0.000,0.841,0.150,2,2,0,2,7,255,1296,250,338,1296
stim,351,351,0,125476.369,0.609,0.045,0.052,-0.790,2675,0,520,3407,291,825,381,4095,42,0.000,4,1,29.690,0.254,20.000,4.940,-21.380,-0.207,-0.151,0.973,0.082,0.240,0.004,0.000,0.000,0.841,0.150,2,2,0,2,7,255,1296,250,343,1296
stim,351,351,0,125481.369,0.610,0.045,0.052,-0.790,2615,0,521,3383,275,779,371,4095,42,0.000,4,1,31.461,0.110,21.120,5.420,-22.680,-0.228,-0.156,0.956,0.082,0.074,0.004,0.000,0.000,0.841,0.150,2,2,0,2,7,255,1296,250,348,1296
stim,351,351,0,125486.369,0.611,0.045,0.051,-0.789,2539,0,500,3380,281,761,359,4095,42,0.000,4,1,30.292,0.211,21.080,4.120,-21.360,-0.249,-0.141,0.940,0.160,-0.138,-0.104,0.000,0.000,0.841,0.150,2,2,0,2,7,255,1296,250,353,1296
stim,351,351,0,125491.369,0.611,0.045,0.050,-0.789,2483,0,493,3361,272,717,368,4095,42,0.000,4,1,24.678,0.420,16.160,3.500,-18.320,-0.277,-0.125,0.934,0.160,-0.388,-0.226,0.000,0.000,0.841,0.150,2,2,0,2,7,255,1296,250,358,1296
stim,383,383,0,125496.369,0.612,0.045,0.049,-0.788,2414,0,543,3340,275,739,356,4095,42,0.000,4,1,18.341,0.686,8.920,0.440,-16.020,-0.301,-0.072,0.938,0.090,-0.680,-0.228,0.000,0.000,0.841,0.150,2,2,0,2,7,255,1296,250,363,1296
stim,383,383,0,125501.370,0.613,0.044,0.048,-0.788,2335,0,559,3311,276,717,372,4095,42,0.000,4,1,13.145,1.065,-0.140,-5.040,-12.140,-0.303,0.050,0.920,-0.354,-1.004,-0.242,0.000,0.000,0.841,0.150,2,2,0,2,7,255,1296,250,368,1296
stim,383,383,0,125506.369,0.613,0.044,0.048,-0.788,2293,0,519,3301,255,723,344,4095,42,0.000,4,1,9.123,1.295,-7.020,-4.060,4.180,-0.320,-0.048,0.937,-0.496,-1.196,-0.228,0.000,0.000,0.841,0.150,2,2,0,2,7,255,1296,250,373,1296
stim,383,383,0,125511.369,0.612,0.044,0.047,-0.788,2239,0,553,3288,253,709,313,4095,42,0.000,4,1,18.062,1.295,-11.540,-6.500,12.280,-0.302,-0.069,0.983,-0.496,-1.196,-0.216,0.000,0.000,0.841,0.150,2,2,0,2,7,255,1296,250,378,1296
stim,448,448,0,125516.369,0.612,0.045,0.049,-0.788,2199,0,507,3283,260,667,331,4095,42,0.000,4,1,33.069,0.969,-30.300,-12.960,2.740,-0.334,-0.260,1.102,-0.410,-0.878,0.216,0.000,0.000,0.841,0.150,2,2,0,2,7,255,1296,250,383,1296
stim,448,448,0,125521.369,0.612,0.045,0.050,-0.788,2123,0,421,3271,231,694,311,4095,42,0.000,4,1,10.157,1.297,-7.000,-5.900,-4.400,-0.144,-0.336,1.143,1.192,-0.510,1.650,0.000,0.000,0.841,0.150,2,2,0,2,7,255,1296,250,388,1296
stim,448,448,0,125526.369,0.612,0.044,0.049,-0.788,2085,0,484,3260,219,709,311,4095,42,0.000,4,1,22.455,1.991,19.080,-7.120,-9.460,-0.171,-0.406,1.156,1.412,1.404,1.712,0.000,0.000,0.841,0.150,2,2,0,2,7,255,1296,250,393,1296
stim,448,448,0,125531.369,0.613,0.043,0.049,-0.787,2041,0,432,3255,213,695,287,4095,42,0.000,4,1,37.941,1.991,26.920,-5.520,-26.160,-0.181,-0.326,1.164,1.412,1.404,1.940,0.000,0.000,0.841,0.150,2,2,0,2,7,255,1296,250,398,1296
stim,448,448,0,125536.369,0.615,0.042,0.048,-0.786,2015,0,167,3256,187,669,256,4095,42,0.000,4,1,59.903,1.757,46.160,-8.500,-37.220,-0.214,-0.036,1.073,1.360,1.112,1.940,0.000,0.000,0.841,0.150,2,2,0,2,7,255,1296,250,403,1296
stim,448,448,0,125541.369,0.616,0.040,0.047,-0.785,2017,0,170,3253,177,677,279,4095,42,0.000,4,1,61.838,1.093,52.660,-7.740,-31.480,-0.318,0.119,1.036,-1.092,-0.054,0.746,0.000,0.000,0.841,0.150,2,2,0,2,7,255,1296,250,408,1296
stim,448,448,0,125546.369,0.618,0.039,0.046,-0.784,2015,0,117,3239,183,670,278,4095,42,0.000,4,1,49.967,2.634,32.040,-20.120,-32.640,-0.365,0.259,0.983,-2.210,-1.434,0.422,0.000,0.000,0.841,0.150,2,2,0,2,7,255,1296,250,413,1296
stim,448,448,0,125551.369,0.618,0.037,0.045,-0.784,2015,0,55,3235,126,640,254,4095,42,0.000,4,1,33.283,3.276,22.020,-20.940,-13.580,-0.301,0.215,0.898,-2.798,-1.704,-0.152,0.000,0.000,0.841,0.150,2,2,0,2,7,255,1296,250,418,1296
stim,448,448,0,125556.369,0.618,0.036,0.044,-0.784,2007,0,72,3229,115,553,288,4095,42,0.000,4,1,26.206,3.276,19.120,-14.480,10.560,-0.234,0.052,0.888,-2.798,-1.704,-1.020,0.000,0.000,0.841,0.150,2,2,0,2,7,255,1296,250,423,1296
stim,448,448,0,125561.369,0.618,0.035,0.044,-0.784,2021,0,73,3231,97,565,311,4093,42,0.000,4,0,25.567,1.506,6.500,-15.800,19.020,-0.154,-0.061,0.921,-1.326,-0.714,-1.020,0.000,0.000,0.841,0.150,2,2,0,2,7,255,1296,250,428,1296
stim,448,448,0,125566.369,0.618,0.034,0.045,-0.785,2013,0,89,3229,55,527,285,4055,42,0.000,4,0,21.501,1.037,-8.380,-18.980,5.640,-0.122,-0.025,0.999,-0.980,0.338,-0.756,0.000,0.000,0.841,0.150,2,2,0,2,7,255,1296,250,433,1296
stim,448,448,0,125571.369,0.618,0.034,0.046,-0.784,2009,0,107,3229,40,430,286,4095,42,0.000,4,0,25.489,1.191,-16.560,-17.500,-8.320,-0.092,-0.019,1.080,-0.980,0.676,-0.120,0.000,0.000,0.841,0.150,2,2,0,2,7,255,1296,250,438,1296
stim,464,464,0,125576.369,0.619,0.033,0.046,-0.784,2023,0,92,3225,19,328,249,4095,42,0.000,4,0,31.223,1.209,-2.160,-14.400,-27.620,-0.155,-0.104,1.119,-0.980,0.708,0.578,0.000,0.000,0.841,0.150,2,2,0,2,7,255,1296,250,443,1296
stim,464,464,0,125581.369,0.620,0.033,0.047,-0.783,2024,0,45,3224,1,160,229,4095,42,0.000,4,1,42.080,0.801,13.400,-12.740,-37.800,-0.216,-0.121,1.111,-0.374,0.708,1.180,0.000,0.000,0.841,0.150,2,2,0,2,7,255,1296,250,448,1296
stim,465,465,0,125586.369,0.621,0.031,0.047,-0.782,2031,0,38,3233,9,160,206,4095,42,0.000,4,1,45.551,0.403,22.440,-17.020,-35.800,-0.276,-0.065,1.066,-0.374,0.150,1.180,0.000,0.000,0.841,0.150,2,2,0,2,7,255,1296,250,453,1296
stim,465,465,0,125591.369,0.622,0.030,0.046,-0.781,2053,0,17,3219,9,185,188,3894,42,0.000,4,0,39.332,0.731,25.540,-19.640,-22.560,-0.297,-0.024,1.003,-0.384,-0.622,0.854,0.000,0.000,0.841,0.150,2,2,0,2,7,255,1296,250,458,1296
stim,465,465,0,125596.369,0.622,0.029,0.046,-0.781,2057,0,28,3227,4,185,175,3873,42,0.000,4,0,25.827,1.158,15.300,-20.500,-3.560,-0.288,-0.012,1.000,-0.610,-0.984,0.248,0.000,0.000,0.841,0.150,2,2,0,2,7,255,1296,250,463,1296
stim,465,465,0,125601.369,0.622,0.028,0.047,-0.781,2067,0,5,3229,11,180,170,3911,42,0.000,4,0,33.296,1.217,-7.900,-29.520,13.220,-0.201,0.046,1.085,-0.716,-0.984,0.248,0.000,0.000,0.841,0.150,2,2,0,2,7,255,1296,250,468,1296
stim,497,497,0,125606.370,0.620,0.027,0.048,-0.782,2079,0,0,3223,5,167,110,3899,42,0.000,4,0,53.710,1.574,-10.900,-33.260,40.740,-0.030,0.063,1.124,-1.564,-0.180,0.762,0.000,0.000,0.841,0.150,2,2,0,2,7,255,1296,250,473,1296
stim,497,497,0,125611.369,0.618,0.026,0.048,-0.784,2087,0,0,3225,6,147,105,4076,42,0.000,4,0,61.026,2.134,-0.640,-29.460,53.440,0.141,-0.031,1.148,-1.596,1.416,0.786,0.000,0.000,0.841,0.150,2,2,0,2,7,255,1296,250,478,1296
stim,498,498,0,125616.369,0.617,0.025,0.048,-0.785,2099,0,0,3235,3,155,85,3566,42,0.000,4,0,43.542,3.623,6.020,-20.500,37.940,0.241,-0.157,1.141,-1.596,3.252,0.786,0.000,0.000,0.841,0.150,2,2,0,2,7,255,1296,250,483,1296
stim,498,498,0,125621.369,0.617,0.024,0.049,-0.785,2099,0,0,3237,10,151,103,3565,42,0.000,4,0,15.081,4.490,8.080,-12.440,2.720,0.248,-0.164,1.160,-0.596,4.450,0.810,0.000,0.000,0.841,0.150,2,2,0,2,7,255,1296,250,488,1296
stim,499,499,0,125626.369,0.618,0.023,0.049,-0.784,2100,0,0,3229,7,155,123,3624,42,0.000,4,0,31.266,4.490,6.260,-4.080,-30.360,0.130,-0.069,1.170,-0.596,4.450,0.888,0.000,0.000,0.841,0.150,2,2,0,2,7,255,1296,250,493,1296
stim,499,499,0,125631.369,0.620,0.023,0.049,-0.783,2120,0,0,3227,5,139,125,3752,42,0.000,4,0,46.129,3.449,12.060,2.400,-44.460,-0.054,0.022,1.188,-1.216,3.228,1.100,0.000,0.000,0.841,0.150,2,2,0,2,7,255,1296,250,498,1296
stim,559,559,0,125636.369,0.621,0.023,0.048,-0.782,2121,0,0,3227,2,147,131,3677,42,0.000,4,0,43.468,2.174,22.980,5.260,-36.520,-0.189,0.087,1.176,-1.728,1.320,1.516,0.000,0.000,0.841,0.150,2,2,0,2,7,255,1296,250,503,1296
stim,559,559,0,125641.369,0.622,0.022,0.047,-0.781,2123,0,0,3227,8,136,127,3689,42,0.000,4,0,36.009,2.041,32.440,5.200,-14.740,-0.239,0.129,1.125,-2.038,-0.106,1.516,0.000,0.000,0.841,0.150,2,2,0,2,7,255,1296,250,508,1296
stim,559,559,0,125646.369,0.622,0.021,0.045,-0.781,2131,0,0,3239,8,152,126,3771,42,0.000,4,0,38.450,2.272,37.700,3.420,6.740,-0.193,0.137,1.060,-2.234,-0.412,1.142,0.000,0.000,0.841,0.150,2,2,0,2,7,255,1296,250,513,1296
stim,559,559,0,125651.369,0.622,0.020,0.044,-0.782,2141,0,0,3226,6,147,125,3447,42,0.000,4,0,40.186,2.272,37.500,1.360,14.380,-0.098,0.112,1.009,-2.234,-0.412,0.432,0.000,0.000,0.841,0.150,2,2,0,2,7,255,1296,250,518,1296
stim,559,559,0,125656.369,0.622,0.019,0.042,-0.782,2149,0,0,3223,7,151,133,3411,42,0.000,4,0,36.497,2.162,36.040,0.080,5.760,-0.031,0.084,0.996,-2.110,0.472,-0.192,0.000,0.000,0.841,0.150,2,2,0,2,7,255,1296,250,523,1296
stim,559,559,0,125661.369,0.623,0.017,0.041,-0.781,2151,0,0,3233,9,145,120,3451,42,0.000,4,0,35.003,2.185,33.540,-0.840,-9.980,-0.040,0.079,0.974,-1.920,1.044,-0.408,0.000,0.000,0.841,0.150,2,2,0,2,7,255,1296,250,528,1296
stim,559,559,0,125666.369,0.624,0.016,0.040,-0.780,2152,0,0,3229,1,143,123,3281,42,0.000,4,0,37.230,2.173,31.160,-0.780,-20.360,-0.107,0.110,0.958,-1.906,1.044,-0.594,0.000,0.000,0.841,0.150,2,2,0,2,7,255,1296,250,533,1296
stim,559,559,0,125671.369,0.625,0.015,0.039,-0.780,2165,0,0,3224,5,155,119,3287,42,0.000,4,0,35.203,1.933,30.000,-0.840,-18.400,-0.183,0.143,0.957,-1.906,0.322,-0.594,0.000,0.000,0.841,0.150,2,2,0,2,7,255,1296,250,538,1296
stim,559,559,0,125676.369,0.625,0.014,0.038,-0.779,2179,0,0,3235,0,161,118,3199,42,0.000,4,0,32.420,2.064,31.460,-0.900,-7.780,-0.215,0.149,0.954,-2.012,-0.460,-0.536,0.000,0.000,0.841,0.150,2,2,0,2,7,255,1296,250,543,1296
stim,559,559,0,125681.369,0.625,0.013,0.037,-0.779,2183,0,0,3229,1,157,121,3031,42,0.000,4,0,33.684,2.098,33.540,-0.960,2.960,-0.198,0.130,0.936,-2.012,-0.594,-0.536,0.000,0.000,0.841,0.150,2,2,0,2,7,255,1296,250,548,1296
stim,559,559,0,125686.369,0.625,0.012,0.035,-0.779,2184,0,0,3225,0,151,123,2925,42,0.000,4,0,34.693,1.905,33.840,-0.840,7.600,-0.159,0.113,0.909,-1.810,-0.594,-0.686,0.000,0.000,0.841,0.150,2,2,0,2,7,255,1296,250,553,1296
stim,559,559,0,125691.369,0.625,0.011,0.034,-0.779,2187,0,0,3231,5,155,117,2963,42,0.000,4,0,32.796,1.675,32.260,-0.180,5.900,-0.138,0.110,0.886,-1.660,-0.224,-0.996,0.000,0.000,0.841,0.150,2,2,0,2,7,255,1296,250,558,1296
stim,559,559,0,125696.369,0.626,0.010,0.033,-0.779,2198,0,0,3223,5,153,119,2980,42,0.000,4,0,29.399,1.633,29.340,1.100,1.500,-0.155,0.118,0.870,-1.618,-0.224,-1.250,0.000,0.000,0.841,0.150,2,2,0,2,7,255,1296,250,563,1296
stim,559,559,0,125701.369,0.626,0.009,0.032,-0.779,2203,0,0,3227,6,151,123,2889,42,0.000,4,0,26.494,1.631,26.400,2.200,-0.340,-0.201,0.120,0.868,-1.612,-0.248,-1.300,0.000,0.000,0.841,0.150,2,2,0,2,7,255,1296,250,568,1296
stim,591,591,0,125706.369,0.626,0.009,0.031,-0.779,2203,0,0,3227,3,155,119,2653,42,0.000,4,0,25.562,1.668,25.180,2.820,3.380,-0.246,0.127,0.872,-1.520,-0.686,-1.300,0.000,0.000,0.841,0.150,2,2,0,2,7,255,1296,250,573,1296
stim,591,591,0,125711.369,0.626,0.008,0.029,-0.779,2163,0,0,3225,6,156,123,2815,42,0.000,4,0,28.371,1.871,25.860,3.060,11.260,-0.265,0.137,0.867,-1.510,-1.104,-1.196,0.000,0.000,0.841,0.150,2,2,0,2,7,255,1296,250,578,1296
stim,591,591,0,125716.369,0.625,0.007,0.028,-0.780,2208,0,0,3231,2,154,119,2679,42,0.000,4,0,33.225,1.940,26.580,3.180,19.680,-0.257,0.136,0.848,-1.480,-1.254,-1.196,0.000,0.000,0.841,0.150,2,2,0,2,7,255,1296,250,583,1296
stim,591,591,0,125721.369,0.625,0.006,0.027,-0.780,2216,0,0,3239,1,142,121,2634,42,0.000,4,0,35.940,1.929,25.600,3.360,25.000,-0.234,0.127,0.818,-1.466,-1.254,-1.382,0.000,0.000,0.841,0.150,2,2,0,2,7,255,1296,250,588,1296
stim,655,655,0,125726.369,0.624,0.006,0.025,-0.781,2227,0,0,3237,3,152,119,2643,42,0.000,4,0,34.077,1.734,21.700,3.920,25.980,-0.211,0.116,0.798,-1.374,-1.058,-1.700,0.000,0.000,0.841,0.150,2,2,0,2,7,255,1296,250,593,1296
stim,655,655,0,125731.370,0.624,0.005,0.024,-0.781,2221,0,0,3241,7,160,120,2717,42,0.000,4,0,29.621,1.528,16.260,4.640,24.320,-0.208,0.098,0.795,-1.272,-0.846,-1.930,0.000,0.000,0.841,0.150,2,2,0,2,7,255,1296,250,598,1296
stim,655,655,0,125736.369,0.623,0.005,0.023,-0.782,2223,0,0,3229,2,155,120,2733,42,0.000,4,0,26.700,1.381,12.120,5.440,23.160,-0.222,0.087,0.804,-1.092,-0.846,-1.930,0.000,0.000,0.841,0.150,2,2,0,2,7,255,1296,250,603,1296
stim,655,655,0,125741.369,0.622,0.005,0.023,-0.783,2229,0,0,3232,5,163,121,2763,42,0.000,4,0,27.427,1.290,9.860,6.480,24.760,-0.241,0.078,0.815,-0.954,-0.868,-1.832,0.000,0.000,0.841,0.150,2,2,0,2,7,255,1296,250,608,1296
stim,655,655,0,125746.369,0.621,0.005,0.022,-0.783,2228,0,0,3225,4,152,107,2712,42,0.000,4,0,31.115,1.290,9.180,7.220,28.840,-0.250,0.058,0.824,-0.818,-0.998,-1.680,0.000,0.000,0.841,0.150,2,2,0,2,7,255,1296,250,613,1296
stim,655,655,0,125751.369,0.620,0.004,0.021,-0.784,2235,0,0,3228,8,155,110,2575,42,0.000,4,0,35.088,1.167,9.500,7.820,32.860,-0.243,0.038,0.824,-0.604,-0.998,-1.570,0.000,0.000,0.841,0.150,2,2,0,2,7,255,1296,250,618,1296
stim,655,655,0,125756.369,0.619,0.004,0.020,-0.785,2234,0,0,3231,1,155,109,2525,42,0.000,4,0,38.738,0.984,11.760,8.740,35.860,-0.224,0.022,0.830,-0.416,-0.892,-1.568,0.000,0.000,0.841,0.150,2,2,0,2,7,255,1296,250,623,1296
stim,655,655,0,125761.369,0.618,0.004,0.019,-0.786,2235,0,0,3229,6,151,120,2518,42,0.000,4,0,40.517,0.724,14.680,9.840,36.460,-0.205,0.000,0.818,-0.302,-0.658,-1.570,0.000,0.000,0.841,0.150,2,2,0,2,7,255,1296,250,628,1296
stim,655,655,0,125766.369,0.617,0.004,0.018,-0.787,2243,0,0,3239,5,159,104,2489,42,0.000,4,0,39.131,0.450,12.920,11.980,34.940,-0.187,-0.034,0.782,-0.104,-0.438,-1.678,0.000,0.000,0.841,0.150,2,2,0,2,7,255,1296,250,633,1296
stim,655,655,0,125771.369,0.616,0.004,0.017,-0.788,2235,0,0,3227,7,155,104,2483,42,0.000,4,0,34.632,0.328,6.020,12.580,31.700,-0.184,-0.056,0.759,0.224,-0.240,-2.046,0.000,0.000,0.841,0.150,2,2,0,2,7,255,1296,250,638,1296
stim,655,655,0,125776.369,0.615,0.004,0.016,-0.788,2251,0,0,3229,3,155,96,2454,42,0.000,4,0,31.980,0.495,0.520,14.180,28.660,-0.186,-0.065,0.776,0.454,-0.196,-2.086,0.000,0.000,0.841,0.150,2,2,0,2,7,255,1296,250,643,1296
stim,655,655,0,125781.369,0.614,0.005,0.016,-0.789,2257,0,0,3229,7,141,111,2487,42,0.000,4,0,31.233,0.551,-1.800,15.700,26.940,-0.194,-0.072,0.809,0.530,-0.150,-2.086,0.000,0.000,0.841,0.150,2,2,0,2,7,255,1296,250,648,1296
stim,655,655,0,125786.369,0.613,0.005,0.015,-0.790,2249,0,0,3230,2,153,102,2492,42,0.000,4,0,31.753,0.599,0.340,17.460,26.520,-0.200,-0.086,0.822,0.584,-0.134,-1.758,0.000,0.000,0.841,0.150,2,2,0,2,7,255,1296,250,653,1296
stim,655,655,0,125791.369,0.612,0.006,0.014,-0.790,2250,0,0,3227,2,151,103,2513,42,0.000,4,0,32.923,0.736,2.780,19.060,26.700,-0.201,-0.108,0.808,0.726,-0.118,-1.738,0.000,0.000,0.841,0.150,2,2,0,2,7,255,1296,250,658,1296
stim,671,671,0,125796.369,0.612,0.006,0.013,-0.791,2248,0,0,3237,6,157,107,2523,42,0.000,4,0,33.715,0.952,2.720,20.640,26.520,-0.201,-0.120,0.787,0.948,-0.084,-1.738,0.000,0.000,0.841,0.150,2,2,0,2,7,255,1296,250,663,1296
stim,672,672,0,125801.369,0.611,0.007,0.013,-0.792,2227,0,0,3231,9,171,96,2555,42,0.000,4,0,34.159,1.056,2.480,22.480,25.600,-0.198,-0.118,0.789,1.054,-0.070,-1.920,0.000,0.000,0.841,0.150,2,2,0,2,7,255,1296,250,668,1296
stim,672,672,0,125806.369,0.610,0.008,0.012,-0.792,2263,0,0,3229,6,161,105,2552,42,0.000,4,0,33.927,1.080,0.820,24.360,23.600,-0.197,-0.133,0.770,1.080,-0.024,-1.932,0.000,0.000,0.841,0.150,2,2,0,2,7,255,1296,250,673,1296
stim,672,672,0,125811.369,0.609,0.009,0.011,-0.793,2259,0,0,3229,2,155,88,2543,42,0.000,4,0,34.200,1.206,-3.260,26.380,21.520,-0.201,-0.149,0.754,1.206,-0.006,-2.098,0.000,0.000,0.841,0.150,2,2,0,2,7,255,1296,250,678,1296
stim,736,736,0,125816.369,0.609,0.010,0.010,-0.793,2258,0,0,3229,8,155,108,2525,42,0.000,4,0,34.844,1.378,-7.600,27.900,19.440,-0.215,-0.160,0.758,1.378,-0.006,-2.166,0.000,0.000,0.841,0.150,2,2,0,2,7,255,1296,250,683,1296
stim,736,736,0,125821.369,0.608,0.011,0.010,-0.794,2263,0,0,3236,8,151,93,2523,42,0.000,4,0,36.360,1.460,-9.860,29.620,18.640,-0.228,-0.154,0.773,1.458,-0.076,-2.166,0.000,0.000,0.841,0.150,2,2,0,2,7,255,1296,250,688,1296
stim,736,736,0,125826.369,0.607,0.012,0.009,-0.794,2261,0,0,3231,0,150,93,2516,42,0.000,4,0,38.085,1.514,-10.340,31.260,19.140,-0.233,-0.162,0.776,1.506,-0.158,-1.994,0.000,0.000,0.841,0.150,2,2,0,2,7,255,1296,250,693,1296
stim,736,736,0,125831.369,0.606,0.014,0.009,-0.795,2265,0,0,3237,9,200,93,2565,42,0.000,4,0,39.469,1.538,-10.780,32.360,19.860,-0.235,-0.176,0.765,1.530,-0.158,-1.994,0.000,0.000,0.841,0.150,2,2,0,2,7,255,1296,250,698,1296
stim,736,736,0,125836.369,0.606,0.015,0.008,-0.796,2268,0,0,3227,5,151,107,2553,42,0.000,4,0,40.699,1.678,-13.020,33.160,19.680,-0.232,-0.189,0.756,1.672,-0.138,-2.044,0.000,0.000,0.841,0.150,2,2,0,2,7,255,1296,250,703,1296
stim,736,736,0,125841.369,0.605,0.017,0.008,-0.796,2259,0,0,3235,8,142,87,2567,42,0.000,4,0,41.874,1.788,-15.960,33.820,18.840,-0.230,-0.202,0.753,1.786,-0.074,-2.122,0.000,0.000,0.841,0.150,2,2,0,2,7,255,1296,250,708,1296
stim,739,739,0,125846.369,0.604,0.018,0.007,-0.797,2265,0,0,3230,3,171,83,2547,42,0.000,4,0,42.336,1.888,-18.580,33.880,17.300,-0.237,-0.217,0.758,1.888,-0.006,-2.122,0.000,0.000,0.841,0.150,2,2,0,2,7,255,1296,250,713,1296
stim,739,739,0,125851.369,0.603,0.020,0.007,-0.797,2263,0,0,3229,3,169,103,2537,42,0.000,4,0,42.499,2.022,-20.300,33.640,16.200,-0.249,-0.225,0.761,2.022,-0.006,-2.080,0.000,0.000,0.841,0.150,2,2,0,2,7,255,1296,250,718,1296
stim,756,756,0,125856.370,0.603,0.022,0.007,-0.798,2265,0,0,3231,4,137,99,2536,42,0.000,4,0,42.184,2.109,-21.080,32.840,16.020,-0.263,-0.237,0.758,2.108,-0.048,-2.012,0.000,0.000,0.841,0.150,2,2,0,2,7,255,1296,250,723,1296
stim,756,756,0,125861.369,0.602,0.023,0.006,-0.798,2275,0,0,3237,9,142,97,2531,42,0.000,4,0,41.999,2.250,-21.520,31.680,17.240,-0.277,-0.256,0.749,2.246,-0.134,-2.012,0.000,0.000,0.841,0.150,2,2,0,2,7,255,1296,250,728,1296
stim,770,770,0,125866.369,0.601,0.025,0.006,-0.799,2263,0,0,3227,9,219,93,2531,42,0.000,4,0,42.012,2.461,-21.940,30.400,18.960,-0.289,-0.284,0.729,2.452,-0.210,-2.040,0.000,0.000,0.841,0.150,2,2,0,2,7,255,1296,250,733,1296
stim,770,770,0,125871.369,0.600,0.026,0.006,-0.799,2264,0,0,3223,13,221,97,2541,42,0.000,4,0,42.178,2.754,-22.740,28.940,20.600,-0.299,-0.315,0.709,2.742,-0.262,-2.174,0.000,0.000,0.841,0.150,2,2,0,2,7,255,1296,250,738,1296
stim,770,770,0,125876.369,0.599,0.028,0.006,-0.800,2265,0,0,3235,13,249,97,2559,42,0.000,4,0,42.545,3.082,-23.840,27.120,22.500,-0.304,-0.350,0.686,3.070,-0.272,-2.324,0.000,0.000,0.841,0.150,2,2,0,2,7,255,1296,250,743,1296
stim,770,770,0,125881.369,0.598,0.029,0.006,-0.801,2283,0,0,3239,16,184,97,2603,42,0.000,4,0,41.811,3.305,-23.700,24.920,23.780,-0.332,-0.327,0.655,3.292,-0.288,-2.508,0.000,0.000,0.841,0.150,2,2,0,2,7,255,1296,250,748,1296
stim,770,770,0,125886.369,0.598,0.029,0.007,-0.801,2373,0,0,3239,25,240,114,2895,42,0.000,4,0,17.159,3.353,-14.120,-9.020,-3.700,-0.648,0.649,0.979,3.292,-0.636,-2.508,0.000,0.000,0.841,0.150,2,2,0,2,7,255,1296,250,753,1296
stim,770,770,0,125891.369,0.599,0.030,0.014,-0.800,2491,0,0,3189,25,223,87,3063,42,0.000,4,0,173.286,7.769,-133.260,-98.680,-50.320,-0.597,1.152,0.936,-5.444,-5.542,-0.386,0.000,0.000,0.841,0.150,2,2,0,2,7,255,1296,250,758,1296
stim,770,770,0,125896.369,0.599,0.029,0.022,-0.800,2649,109,0,3243,47,396,109,3066,42,0.000,4,0,174.835,10.489,-119.840,-118.100,-47.520,-0.657,0.952,0.710,-8.088,-6.678,-0.386,0.000,0.000,0.841,0.150,2,2,0,2,7,255,1296,250,763,1296
stim,770,770,0,125901.369,0.597,0.036,0.040,-0.801,2796,0,0,3300,14,181,105,2841,42,0.000,4,0,452.616,10.489,-435.580,-115.160,-43.240,-0.329,-0.912,1.536,-8.088,-6.678,-0.386,0.000,0.000,0.841,0.150,2,2,0,2,7,255,1296,250,768,1296
stim,770,770,0,125906.369,0.587,0.048,0.059,-0.806,2903,41,0,3379,15,189,135,2533,42,0.000,4,0,567.345,7.254,-547.340,-65.900,134.000,0.009,-2.429,1.439,6.888,2.274,6.404,0.000,0.000,0.841,0.150,2,2,0,2,7,255,1296,250,773,1296
stim,770,770,0,125911.369,0.579,0.053,0.067,-0.811,2969,0,6,3447,5,185,127,2379,42,0.000,4,0,310.089,21.710,-269.200,-33.920,150.120,-0.099,-2.734,2.450,19.450,9.644,7.436,0.000,0.000,0.841,0.150,2,2,0,2,7,255,1296,250,778,1296
stim,799,799,0,125916.369,0.574,0.055,0.069,-0.814,2988,4,51,3471,16,217,216,2542,42,0.000,4,0,169.129,21.877,-99.020,-5.540,137.000,0.097,-1.523,2.844,19.450,10.014,18.130,0.000,0.000,0.841,0.150,2,2,0,2,7,255,1296,250,783,1296
stim,799,799,0,125921.369,0.574,0.049,0.064,-0.815,2999,40,18,3506,18,219,236,2535,42,0.000,4,0,178.780,12.142,171.840,-31.980,37.560,-0.131,-0.480,2.569,6.866,10.014,18.130,0.000,0.000,0.841,0.150,2,2,0,2,7,255,1296,250,788,1296
stim,799,799,0,125926.369,0.577,0.041,0.053,-0.814,3007,25,21,3502,39,405,206,2651,42,0.000,4,0,326.863,4.292,326.640,-10.800,-5.400,-0.180,-0.067,1.683,-0.892,4.198,15.368,0.000,0.000,0.841,0.150,2,2,0,2,7,255,1296,250,793,1296
stim,799,799,0,125931.369,0.581,0.032,0.041,-0.812,3017,30,22,3507,76,443,229,2745,42,0.000,4,0,359.030,1.518,357.940,3.920,-27.680,-0.287,-0.134,0.836,-0.892,1.228,6.492,0.000,0.000,0.841,0.150,2,2,0,2,7,255,1296,250,798,1296
stim,863,863,0,125936.369,0.585,0.024,0.031,-0.810,2999,39,29,3527,81,419,253,2969,42,0.000,4,0,307.599,1.107,305.080,0.560,-39.280,-0.289,-0.175,0.283,0.788,-0.778,-1.224,0.000,0.000,0.841,0.150,2,2,0,2,7,255,1296,250,803,1296
stim,863,863,0,125941.369,0.588,0.019,0.025,-0.808,2973,39,216,3511,53,445,261,3111,42,0.000,4,0,196.674,2.641,194.120,-5.540,-31.100,-0.352,-0.105,0.000,2.118,-1.578,-6.470,0.000,0.000,0.841,0.150,2,2,0,2,7,255,1296,250,808,1296
stim,863,863,0,125946.369,0.589,0.017,0.023,-0.808,2921,43,216,3517,105,488,284,3081,42,0.000,4,0,62.911,3.567,60.160,-12.080,-13.880,-0.306,0.134,0.000,2.118,-2.870,-9.122,0.000,0.000,0.841,0.150,2,2,0,2,7,255,1296,250,813,1296
stim,863,863,0,125951.369,0.588,0.019,0.026,-0.809,2835,46,331,3513,185,501,293,3089,42,0.000,4,0,78.291,3.183,-74.560,-10.600,21.400,-0.280,0.417,0.245,-0.240,-3.174,-9.122,0.000,0.000,0.841,0.150,2,2,0,2,7,255,1296,250,818,1296
stim,863,863,0,125956.369,0.585,0.022,0.031,-0.810,3033,41,435,3511,228,549,319,3207,42,0.000,4,0,158.521,4.546,-151.880,-14.400,43.060,-0.208,0.467,0.778,-3.254,-3.174,-7.302,0.000,0.000,0.841,0.150,2,2,0,2,7,255,1296,250,823,1296
stim,863,863,0,125961.369,0.582,0.025,0.036,-0.812,3045,22,525,3509,251,681,347,3419,42,0.000,4,0,159.844,3.804,-151.640,-10.060,49.540,-0.124,0.136,1.255,-3.254,-1.970,-2.450,0.000,0.000,0.841,0.150,2,2,0,2,7,255,1296,250,828,1296
stim,863,863,0,125966.369,0.579,0.027,0.039,-0.814,3035,26,519,3519,265,709,345,3399,42,0.000,4,0,101.878,2.743,-91.700,-3.840,44.220,-0.026,-0.202,1.503,-2.684,0.564,2.170,0.000,0.000,0.841,0.150,2,2,0,2,7,255,1296,250,833,1296
stim,863,863,0,125971.370,0.579,0.027,0.039,-0.814,3043,0,503,3516,277,861,368,3595,42,0.000,4,0,26.192,2.927,-8.460,1.180,24.760,0.043,-0.395,1.513,-0.336,2.908,4.656,0.000,0.000,0.841,0.150,2,2,0,2,7,255,1296,250,838,1296
stim,863,863,0,125976.369,0.579,0.026,0.037,-0.814,3053,0,541,3525,276,892,375,3799,42,0.000,4,0,60.138,3.466,59.420,3.180,-8.700,0.025,-0.311,1.247,0.976,3.326,4.656,0.000,0.000,0.841,0.150,2,2,0,2,7,255,1296,250,843,1296
stim,863,863,0,125981.369,0.581,0.024,0.034,-0.813,3053,33,566,3523,295,953,380,3802,42,0.000,4,0,86.713,3.466,78.700,5.560,-35.980,-0.083,-0.109,0.900,0.976,3.326,2.210,0.000,0.000,0.841,0.150,2,2,0,2,7,255,1296,250,848,1296
stim,863,863,0,125986.369,0.583,0.023,0.032,-0.811,3062,35,631,3528,288,972,395,3819,42,0.000,4,0,68.638,1.139,53.560,3.000,-42.820,-0.203,-0.023,0.688,0.042,1.138,-1.066,0.000,0.000,0.841,0.150,2,2,0,2,7,255,1296,250,853,1296
stim,863,863,0,125991.369,0.584,0.023,0.032,-0.810,3068,44,683,3527,299,981,426,3959,42,0.000,4,0,34.695,0.578,7.060,0.800,-33.960,-0.294,-0.027,0.641,0.042,-0.576,-2.922,0.000,0.000,0.841,0.150,2,2,0,2,7,255,1296,250,858,1296
stim,863,863,0,125996.369,0.585,0.024,0.034,-0.810,3096,0,767,3526,281,993,423,4095,42,0.000,4,0,36.038,1.468,-32.200,1.180,-16.140,-0.322,-0.039,0.795,0.242,-1.448,-2.922,0.000,0.000,0.841,0.150,2,2,0,2,7,255,1296,250,863,1296
stim,863,863,0,126001.369,0.584,0.025,0.035,-0.810,3112,47,801,3540,255,989,437,4095,42,0.000,4,0,44.700,1.468,-44.580,-2.740,1.800,-0.291,-0.049,1.017,0.242,-1.448,-1.640,0.000,0.000,0.841,0.150,2,2,0,2,7,255,1296,250,868,1296
stim,880,880,0,126006.369,0.584,0.026,0.036,-0.811,3109,52,811,3543,273,1003,440,4095,42,0.000,4,0,31.714,0.777,-29.620,-1.280,11.260,-0.235,-0.074,1.164,-0.116,-0.768,0.418,0.000,0.000,0.841,0.150,2,2,0,2,7,255,1296,250,873,1296
stim,880,880,0,126011.369,0.583,0.026,0.036,-0.811,3087,137,829,3550,265,1005,455,4095,42,0.000,4,0,11.670,0.133,-1.980,0.140,11.500,-0.181,-0.113,1.169,-0.116,0.066,1.702,0.000,0.000,0.841,0.150,2,2,0,2,7,255,1296,250,878,1296
stim,895,895,0,126016.369,0.583,0.025,0.035,-0.811,3129,105,925,3539,247,1003,445,4095,42,0.000,4,0,20.081,0.696,19.080,2.260,5.840,-0.167,-0.134,1.052,-0.090,0.690,1.702,0.000,0.000,0.841,0.150,2,2,0,2,7,255,1296,250,883,1296
stim,895,895,0,126021.369,0.583,0.025,0.035,-0.811,3145,123,921,3553,264,1029,435,4095,42,0.000,4,0,21.222,0.737,21.020,2.820,0.760,-0.187,-0.104,0.910,0.260,0.690,0.580,0.000,0.000,0.841,0.150,2,2,0,2,7,255,1296,250,888,1296
stim,944,944,0,126026.369,0.583,0.025,0.034,-0.811,3149,148,931,3545,173,1043,444,4095,42,0.000,4,1,6.605,0.320,6.320,1.900,0.280,-0.215,-0.071,0.840,0.260,0.186,-0.764,0.000,0.000,0.841,0.150,2,2,0,2,7,255,1296,250,893,1296
stim,944,944,0,126031.369,0.583,0.025,0.034,-0.811,3161,160,931,3559,223,1044,445,4095,42,0.000,4,1,13.282,0.328,-12.720,-0.180,3.820,-0.233,-0.055,0.868,0.154,-0.290,-1.092,0.000,0.000,0.841,0.150,2,2,0,2,7,255,1296,250,898,1296
stim,959,959,0,126036.369,0.583,0.026,0.035,-0.811,3172,147,935,3550,211,1044,448,4095,42,0.000,4,1,25.181,0.290,-23.400,-1.080,9.240,-0.232,-0.072,0.960,0.012,-0.290,-1.092,0.000,0.000,0.841,0.150,2,2,0,2,7,255,1296,250,903,1296
stim,959,959,0,126041.369,0.582,0.026,0.035,-0.812,3179,190,927,3556,216,1049,483,4095,42,0.000,4,1,24.678,0.228,-21.080,-1.140,12.780,-0.214,-0.093,1.035,0.012,-0.228,-0.196,0.000,0.000,0.841,0.150,2,2,0,2,7,255,1296,250,908,1296
stim,959,959,0,126046.369,0.582,0.026,0.036,-0.812,3185,185,944,3556,185,1059,484,4095,42,0.000,4,1,18.287,0.119,-12.240,-0.420,13.580,-0.199,-0.091,1.043,0.012,0.118,0.498,0.000,0.000,0.841,0.150,2,2,0,2,7,255,1296,250,913,1296
stim,959,959,0,126051.369,0.581,0.026,0.036,-0.813,3196,165,953,3551,173,1099,500,4095,42,0.000,4,1,13.027,0.257,-5.760,0.320,11.680,-0.191,-0.100,1.003,0.026,0.256,0.498,0.000,0.000,0.841,0.150,2,2,0,2,7,255,1296,250,918,1296
stim,959,959,0,126056.369,0.581,0.026,0.036,-0.813,3205,179,968,3573,225,1143,489,4095,42,0.000,4,1,11.993,0.263,-5.820,0.740,10.460,-0.200,-0.093,0.948,0.060,0.256,0.142,0.000,0.000,0.841,0.150,2,2,0,2,7,255,1296,250,923,1296
stim,959,959,0,126061.369,0.580,0.026,0.036,-0.813,3213,212,997,3565,234,1197,494,4095,42,0.000,4,1,17.073,0.124,-12.720,0.440,11.380,-0.214,-0.083,0.922,0.088,0.088,-0.362,0.000,0.000,0.841,0.150,2,2,0,2,7,255,1296,250,928,1296
stim,959,959,0,126066.371,0.580,0.027,0.037,-0.814,3221,166,1001,3567,219,1224,504,4095,42,0.000,4,1,24.374,0.116,-20.360,0.080,13.400,-0.213,-0.082,0.941,0.088,-0.076,-0.404,0.000,0.000,0.841,0.150,2,2,0,2,7,255,1296,250,933,1296
stim,959,959,0,126071.369,0.579,0.027,0.037,-0.814,3227,217,1001,3563,213,1226,499,4095,42,0.000,4,1,27.423,0.081,-23.580,0.020,14.000,-0.203,-0.078,0.970,0.028,-0.076,-0.404,0.000,0.000,0.841,0.150,2,2,0,2,7,255,1296,250,938,1296
stim,959,959,0,126076.369,0.578,0.028,0.038,-0.814,3237,185,1003,3571,227,1263,505,4095,42,0.000,4,1,26.519,0.106,-22.920,1.780,13.220,-0.196,-0.074,0.991,-0.096,0.046,-0.156,0.000,0.000,0.841,0.150,2,2,0,2,7,255,1296,250,943,1296
stim,959,959,0,126081.369,0.578,0.028,0.038,-0.815,3232,203,1011,3577,221,1285,518,4095,42,0.000,4,1,24.574,0.231,-21.520,1.040,11.820,-0.191,-0.076,0.993,-0.192,0.128,0.030,0.000,0.000,0.841,0.150,2,2,0,2,7,255,1296,250,948,1296
stim,959,959,0,126086.369,0.577,0.028,0.039,-0.815,3242,199,1016,3563,201,1284,529,4095,42,0.000,4,1,22.476,0.258,-20.420,1.300,9.300,-0.189,-0.093,0.975,-0.192,0.172,0.030,0.000,0.000,0.841,0.150,2,2,0,2,7,255,1296,250,953,1296
stim,959,959,0,126091.369,0.577,0.029,0.040,-0.815,3231,184,1015,3560,227,1304,535,4095,42,0.000,4,1,22.530,0.176,-21.400,1.600,6.860,-0.196,-0.098,0.958,-0.036,0.172,-0.122,0.000,0.000,0.841,0.150,2,2,0,2,7,255,1296,250,958,1296
stim,976,976,0,126096.369,0.577,0.029,0.040,-0.816,3239,181,1015,3571,218,1325,530,4095,42,0.000,4,1,24.267,0.180,-23.900,1.100,4.060,-0.193,-0.107,0.954,0.046,0.174,-0.264,0.000,0.000,0.841,0.150,2,2,0,2,7,255,1296,250,963,1296
stim,976,976,0,126101.369,0.576,0.030,0.041,-0.816,3263,185,1020,3567,227,1325,535,4095,42,0.000,4,1,25.821,0.138,-25.300,2.940,4.240,-0.216,-0.090,0.958,0.046,0.130,-0.264,0.000,0.000,0.841,0.150,2,2,0,2,7,255,1296,250,968,1296
stim,976,976,0,126106.369,0.576,0.031,0.042,-0.816,3247,179,1033,3567,233,1339,532,4095,42,0.000,4,1,27.326,0.088,-26.280,3.500,6.620,-0.224,-0.079,0.964,-0.008,-0.088,-0.222,0.000,0.000,0.841,0.150,2,2,0,2,7,255,1296,250,973,1296
stim,976,976,0,126111.369,0.575,0.031,0.042,-0.816,3257,186,1033,3587,253,1339,521,4095,42,0.000,4,1,28.604,0.088,-26.520,4.340,9.800,-0.220,-0.096,0.971,-0.008,-0.088,-0.154,0.000,0.000,0.841,0.150,2,2,0,2,7,255,1296,250,978,1296
stim,1040,1040,0,126116.369,0.575,0.032,0.043,-0.817,3261,211,1035,3591,248,1363,533,4095,42,0.000,4,1,29.176,0.080,-26.880,2.700,11.020,-0.195,-0.116,0.976,0.004,-0.080,-0.084,0.000,0.000,0.841,0.150,2,2,0,2,7,255,1296,250,983,1296
stim,1040,1040,0,126121.369,0.574,0.033,0.044,-0.817,3277,212,1035,3579,252,1406,511,4095,42,0.000,4,1,26.418,0.230,-25.000,2.080,8.280,-0.156,-0.134,0.970,0.084,0.214,-0.084,0.000,0.000,0.841,0.150,2,2,0,2,7,255,1296,250,988,1296
stim,1040,1040,0,126126.369,0.574,0.033,0.045,-0.817,3287,219,1035,3589,243,1456,533,4095,42,0.000,4,1,24.682,0.230,-23.460,5.200,5.640,-0.191,-0.080,0.969,0.084,0.214,-0.174,0.000,0.000,0.841,0.150,2,2,0,2,7,255,1296,250,993,1296
stim,1040,1040,0,126131.369,0.573,0.034,0.045,-0.817,3289,221,1043,3573,256,1439,531,4095,42,0.000,4,1,25.119,0.299,-24.680,2.520,3.940,-0.179,-0.093,0.959,-0.194,0.228,-0.178,0.000,0.000,0.841,0.150,2,2,0,2,7,255,1296,250,998,1296
stim,1040,1040,0,126136.370,0.573,0.034,0.046,-0.817,3279,239,1047,3576,269,1433,537,4095,42,0.000,4,1,26.215,0.221,-25.540,5.080,3.020,-0.199,-0.119,0.948,-0.194,0.106,-0.280,0.000,0.000,0.841,0.150,2,2,0,2,7,255,1296,250,1003,1296
stim,1040,1040,0,126141.369,0.573,0.035,0.047,-0.818,3303,232,1047,3580,232,1485,532,4095,42,0.000,4,1,26.934,0.139,-26.160,5.620,3.080,-0.209,-0.117,0.953,0.090,0.106,-0.280,0.000,0.000,0.841,0.150,2,2,0,2,7,255,1296,250,1008,1296
stim,1071,1071,0,126146.370,0.572,0.036,0.047,-0.818,3303,254,1048,3581,246,1505,532,4095,42,0.000,4,1,27.734,0.105,-26.640,5.260,5.640,-0.223,-0.121,0.955,0.104,0.012,-0.242,0.000,0.000,0.841,0.150,2,2,0,2,7,255,1296,250,1013,1296
stim,1071,1071,0,126151.369,0.572,0.037,0.048,-0.818,3314,265,1019,3595,223,1517,509,4095,42,0.000,4,1,29.154,0.129,-26.880,6.000,9.560,-0.230,-0.112,0.959,0.090,-0.092,-0.184,0.000,0.000,0.841,0.150,2,2,0,2,7,255,1296,250,1018,1296
stim,1071,1071,0,126156.369,0.571,0.038,0.049,-0.819,3323,256,1032,3582,237,1507,500,4095,42,0.000,4,1,31.017,0.105,-27.920,5.320,12.420,-0.216,-0.108,0.958,0.050,-0.092,-0.180,0.000,0.000,0.841,0.150,2,2,0,2,7,255,1296,250,1023,1296
stim,1071,1071,0,126161.369,0.570,0.038,0.049,-0.819,3321,260,1021,3603,232,1520,501,4095,42,0.000,4,1,31.558,0.081,-27.980,5.500,13.520,-0.199,-0.128,0.961,0.050,-0.064,-0.160,0.000,0.000,0.841,0.150,2,2,0,2,7,255,1296,250,1028,1296
stim,1071,1071,0,126166.371,0.570,0.039,0.050,-0.819,3323,235,1034,3597,249,1493,508,4095,42,0.000,4,1,30.053,0.168,-26.760,6.780,11.880,-0.193,-0.136,0.969,0.062,0.156,-0.160,0.000,0.000,0.841,0.150,2,2,0,2,7,255,1296,250,1033,1296
stim,1071,1071,0,126171.369,0.569,0.040,0.051,-0.820,3337,240,1035,3596,243,1564,509,4095,42,0.000,4,1,29.251,0.240,-27.000,6.420,9.240,-0.190,-0.125,0.971,0.062,0.232,-0.092,0.000,0.000,0.841,0.150,2,2,0,2,7,255,1296,250,1038,1296
stim,1071,1071,0,126176.369,0.569,0.041,0.052,-0.820,3335,247,1039,3601,271,1525,501,4095,42,0.000,4,1,28.392,0.260,-27.120,5.800,6.080,-0.188,-0.147,0.968,0.078,0.248,-0.092,0.000,0.000,0.841,0.150,2,2,0,2,7,255,1296,250,1043,1296
stim,1071,1071,1,126181.369,0.568,0.041,0.053,-0.820,3351,301,1041,3615,264,1551,495,4095,42,0.000,4,1,27.684,0.342,-26.940,6.000,2.160,-0.191,-0.163,0.973,0.122,0.320,-0.088,0.000,0.000,0.841,0.150,2,2,1,2,7,255,1296,250,1048,1296
stim,1071,1071,1,126186.369,0.568,0.042,0.053,-0.820,3355,297,1035,3613,272,1568,505,4095,42,0.000,4,1,27.308,0.342,-26.940,4.460,-0.280,-0.205,-0.148,0.977,0.122,0.320,-0.022,0.000,0.000,0.841,0.150,2,2,1,2,7,255,1296,250,1053,1296
stim,1071,1071,1,126191.369,0.568,0.043,0.054,-0.820,3344,301,1044,3608,284,1579,506,4095,42,0.000,4,1,26.076,0.203,-25.840,3.420,-0.760,-0.214,-0.144,0.971,0.116,0.166,-0.018,0.000,0.000,0.841,0.150,2,2,1,2,7,255,1296,250,1058,1296
stim,1071,1071,1,126196.369,0.568,0.044,0.055,-0.820,3368,302,1046,3613,288,1591,531,4095,42,0.000,4,1,26.153,0.106,-25.780,4.400,0.100,-0.222,-0.128,0.959,0.092,0.052,-0.018,0.000,0.000,0.841,0.150,2,2,1,2,7,255,1296,250,1063,1296
stim,1071,1071,1,126201.369,0.568,0.044,0.056,-0.820,3360,311,1044,3610,297,1664,535,4095,42,0.000,4,1,26.767,0.106,-26.280,5.080,0.100,-0.220,-0.174,0.976,0.092,0.052,-0.018,0.000,0.000,0.841,0.150,2,2,1,2,7,255,1296,250,1068,1296
stim,1071,1071,1,126206.369,0.567,0.045,0.057,-0.820,3379,331,1047,3613,285,1633,531,4095,42,0.000,4,1,26.044,0.347,-25.480,5.380,-0.340,-0.227,-0.191,0.993,0.332,0.102,0.092,0.000,0.000,0.841,0.150,2,2,1,2,7,255,1296,250,1073,1296
stim,1071,1071,1,126211.369,0.567,0.046,0.057,-0.820,3382,307,1045,3615,279,1655,538,4095,42,0.000,4,1,25.531,0.347,-25.180,4.220,-0.020,-0.240,-0.155,0.991,0.332,0.102,0.240,0.000,0.000,0.841,0.150,2,2,1,2,7,255,1296,250,1078,1296
stim,1092,1092,1,126216.369,0.567,0.047,0.058,-0.820,3388,307,1051,3639,279,1610,537,4095,42,0.000,4,1,25.872,0.185,-25.540,3.800,1.620,-0.244,-0.140,0.980,0.132,-0.130,0.240,0.000,0.000,0.841,0.150,2,2,1,2,7,255,1296,250,1083,1296
stim,1092,1092,1,126221.369,0.566,0.048,0.059,-0.821,3387,303,1048,3636,296,1683,539,4095,42,0.000,4,1,25.594,0.153,-24.860,5.020,3.440,-0.239,-0.153,0.987,0.078,-0.132,0.200,0.000,0.000,0.841,0.150,2,2,1,2,7,255,1296,250,1088,1296
stim,1104,1104,1,126226.369,0.566,0.048,0.059,-0.821,3376,327,1050,3633,311,1677,527,4095,42,0.000,4,1,25.247,0.133,-24.140,4.780,5.640,-0.229,-0.146,0.984,0.014,-0.132,0.134,0.000,0.000,0.841,0.150,2,2,1,2,7,255,1296,250,1093,1296
stim,1104,1104,1,126231.369,0.566,0.049,0.060,-0.821,3399,359,1056,3640,299,1701,554,4095,42,0.000,4,1,24.609,0.072,-23.460,4.520,5.900,-0.218,-0.152,0.977,-0.008,-0.072,0.134,0.000,0.000,0.841,0.150,2,2,1,2,7,255,1296,250,1098,1296
stim,1151,1151,1,126236.369,0.565,0.050,0.060,-0.821,3405,357,1052,3619,313,1664,556,4095,42,0.000,4,1,25.741,0.037,-24.560,5.380,5.520,-0.210,-0.170,0.970,-0.008,0.036,0.052,0.000,0.000,0.841,0.150,2,2,1,2,7,255,1296,250,1103,1296
stim,1152,1152,1,126241.369,0.565,0.051,0.061,-0.821,3413,392,1063,3643,315,1643,559,4095,42,0.000,4,1,26.034,0.202,-25.180,6.000,2.780,-0.206,-0.179,0.967,0.124,0.160,0.000,0.000,0.000,0.841,0.150,2,2,1,2,7,255,1296,250,1108,1296
stim,1167,1167,1,126246.369,0.565,0.051,0.062,-0.821,3400,403,1065,3624,330,1627,560,4095,42,0.000,4,1,26.386,0.241,-25.720,5.680,1.560,-0.209,-0.179,0.973,0.148,0.190,0.000,0.000,0.000,0.841,0.150,2,2,1,2,7,255,1296,250,1113,1296
stim,1167,1167,1,126251.369,0.564,0.052,0.063,-0.821,3389,314,1065,3621,308,1627,557,4095,42,0.000,4,1,26.388,0.256,-25.960,4.720,0.340,-0.214,-0.188,0.979,0.172,0.190,0.034,0.000,0.000,0.841,0.150,2,2,1,2,7,255,1296,250,1118,1296
stim,1167,1167,1,126256.369,0.564,0.053,0.064,-0.822,3397,413,1079,3611,313,1636,555,995,42,0.000,4,1,25.931,0.231,-25.540,4.340,1.140,-0.217,-0.171,0.974,0.148,0.178,0.046,0.000,0.000,0.841,0.150,2,2,1,2,7,255,1296,250,1123,1296
stim,1167,1167,1,126261.369,0.564,0.054,0.065,-0.822,3388,428,1084,3634,311,1644,557,997,42,0.000,4,1,25.526,0.257,-25.120,4.340,1.320,-0.221,-0.201,0.982,0.206,0.154,0.124,0.000,0.000,0.841,0.150,2,2,1,2,7,255,1296,250,1128,1296
stim,1167,1167,1,126266.369,0.564,0.054,0.065,-0.822,3414,427,1097,3651,311,1605,567,984,42,0.000,4,1,24.782,0.101,-24.320,4.100,2.420,-0.219,-0.161,0.971,0.056,0.084,0.046,0.000,0.000,0.841,0.150,2,2,1,2,7,255,1296,250,1133,1296
stim,1167,1167,1,126271.369,0.563,0.055,0.066,-0.822,3389,433,1105,3621,320,1617,571,986,42,0.000,4,1,23.928,0.285,-23.460,4.040,2.420,-0.225,-0.200,0.978,0.266,0.102,0.148,0.000,0.000,0.841,0.150,2,2,1,2,7,255,1296,250,1138,1296
stim,1167,1167,1,126276.369,0.563,0.056,0.067,-0.822,3411,429,1101,3616,329,1622,567,989,42,0.000,4,1,25.003,0.023,-24.080,4.460,5.040,-0.223,-0.173,0.967,0.020,0.012,0.004,0.000,0.000,0.841,0.150,2,2,1,2,7,255,1296,250,1143,1296
stim,1167,1167,1,126281.370,0.562,0.056,0.067,-0.822,3403,445,1113,3623,341,1629,563,997,42,0.000,4,1,22.840,0.185,-22.300,3.860,3.080,-0.217,-0.194,0.974,0.154,0.102,0.082,0.000,0.000,0.841,0.150,2,2,1,2,7,255,1296,250,1148,1296
stim,1167,1167,1,126286.369,0.562,0.057,0.068,-0.822,3425,438,1123,3653,342,1697,543,1035,42,0.000,4,1,25.178,0.165,-24.320,4.340,4.860,-0.226,-0.196,0.969,0.154,0.058,0.064,0.000,0.000,0.841,0.150,2,2,1,2,7,255,1296,250,1153,1296
stim,1167,1167,1,126291.369,0.562,0.058,0.069,-0.822,3413,343,1117,3636,333,1681,551,1038,42,0.000,4,1,23.721,0.198,-23.040,4.040,3.940,-0.215,-0.188,0.969,0.154,0.124,0.064,0.000,0.000,0.841,0.150,2,2,1,2,7,255,1296,250,1158,1296
stim,1167,1167,1,126296.369,0.561,0.058,0.069,-0.823,3399,421,1109,3635,332,1681,542,1047,42,0.000,4,1,23.367,0.155,-22.800,4.040,3.140,-0.218,-0.194,0.972,0.100,0.118,0.064,0.000,0.000,0.841,0.150,2,2,1,2,7,255,1296,250,1163,1296
stim,1167,1167,1,126301.369,0.561,0.059,0.070,-0.823,3387,325,1119,3638,341,1669,536,1034,42,0.000,4,1,22.549,0.134,-22.060,3.560,3.020,-0.223,-0.182,0.968,0.064,0.118,0.020,0.000,0.000,0.841,0.150,2,2,1,2,7,255,1296,250,1168,1296
stim,1183,1183,1,126306.369,0.561,0.060,0.071,-0.823,3391,331,1118,3627,337,1699,517,1045,42,0.000,4,1,21.431,0.020,-20.900,3.500,3.200,-0.225,-0.184,0.971,0.004,0.020,0.054,0.000,0.000,0.841,0.150,2,2,1,2,7,255,1296,250,1173,1296
stim,1183,1183,1,126311.369,0.560,0.060,0.071,-0.823,3371,363,1087,3635,347,1659,510,1046,42,0.000,4,1,21.401,0.020,-20.720,3.420,4.120,-0.220,-0.188,0.959,0.004,0.020,0.018,0.000,0.000,0.841,0.150,2,2,1,2,7,255,1296,250,1178,1296
stim,1183,1183,1,126316.369,0.560,0.061,0.072,-0.823,3401,359,1117,3629,339,1689,509,1045,42,0.000,4,1,20.257,0.020,-19.560,3.920,3.520,-0.214,-0.167,0.956,-0.002,0.020,-0.058,0.000,0.000,0.841,0.150,2,2,1,2,7,255,1296,250,1183,1296
stim,1183,1183,1,126321.369,0.560,0.061,0.072,-0.823,3405,415,1115,3639,339,1691,508,1047,42,0.000,4,1,20.607,0.056,-19.980,4.040,3.020,-0.216,-0.188,0.950,0.022,0.052,-0.144,0.000,0.000,0.841,0.150,2,2,1,2,7,255,1296,250,1188,1296
stim,1249,1249,1,126326.369,0.560,0.062,0.073,-0.823,3406,414,1130,3631,329,1707,508,1047,42,0.000,4,1,20.002,0.068,-19.560,3.800,1.740,-0.217,-0.214,0.961,0.022,0.064,-0.144,0.000,0.000,0.841,0.150,2,2,1,2,7,255,1296,250,1193,1296
stim,1249,1249,1,126331.369,0.559,0.062,0.073,-0.823,3415,363,1139,3633,341,1705,507,1039,42,0.000,4,1,18.907,0.209,-18.640,3.060,0.820,-0.223,-0.211,0.961,0.186,0.096,0.004,0.000,0.000,0.841,0.150,2,2,1,2,7,255,1296,250,1198,1296
stim,1249,1249,1,126336.369,0.559,0.063,0.074,-0.823,3405,361,1144,3639,355,1709,501,1047,42,0.000,4,1,18.429,0.209,-18.220,2.760,0.220,-0.225,-0.210,0.956,0.186,0.096,0.004,0.000,0.000,0.841,0.150,2,2,1,2,7,255,1296,250,1203,1296
stim,1249,1249,1,126341.369,0.559,0.063,0.075,-0.823,3428,359,1131,3649,355,1693,507,1047,42,0.000,4,1,17.011,0.185,-16.820,2.520,0.340,-0.227,-0.211,0.963,0.176,0.058,0.012,0.000,0.000,0.841,0.150,2,2,1,2,7,255,1296,250,1208,1296
stim,1250,1250,1,126346.369,0.559,0.064,0.075,-0.823,3403,376,1149,3629,363,1671,503,1047,42,0.000,4,1,18.021,0.168,-17.720,2.820,1.680,-0.231,-0.207,0.956,0.160,0.052,-0.026,0.000,0.000,0.841,0.150,2,2,1,2,7,255,1296,250,1213,1296
stim,1250,1250,1,126351.369,0.559,0.064,0.076,-0.823,3425,381,1126,3635,355,1711,505,1050,42,0.000,4,1,16.596,0.137,-16.320,2.580,1.560,-0.227,-0.209,0.962,0.130,0.044,0.026,0.000,0.000,0.841,0.150,2,2,1,2,7,255,1296,250,1218,1296
stim,1251,1251,1,126356.369,0.558,0.065,0.076,-0.824,3401,394,1119,3637,352,1673,510,1051,42,0.000,4,1,15.374,0.115,-14.980,2.580,2.300,-0.227,-0.192,0.961,0.114,-0.012,-0.016,0.000,0.000,0.841,0.150,2,2,1,2,7,255,1296,250,1223,1296
stim,1251,1251,1,126361.369,0.558,0.065,0.076,-0.824,3419,378,1107,3640,357,1707,504,1051,42,0.000,4,1,15.213,0.046,-14.440,3.180,3.580,-0.221,-0.198,0.958,-0.014,0.044,-0.016,0.000,0.000,0.841,0.150,2,2,1,2,7,255,1296,250,1228,1296
stim,1252,1252,1,126366.369,0.558,0.065,0.077,-0.824,3417,440,1142,3624,333,1713,501,1047,42,0.000,4,1,13.315,0.050,-12.360,3.420,3.580,-0.211,-0.215,0.960,-0.014,0.048,-0.016,0.000,0.000,0.841,0.150,2,2,1,2,7,255,1296,250,1233,1296
stim,1252,1252,1,126371.369,0.558,0.066,0.077,-0.824,3419,395,1136,3654,346,1749,504,1051,42,0.000,4,1,10.701,0.199,-10.160,2.200,2.540,-0.206,-0.215,0.964,0.052,0.192,-0.010,0.000,0.000,0.841,0.150,2,2,1,2,7,255,1296,250,1238,1296
stim,1253,1253,1,126376.369,0.558,0.066,0.077,-0.824,3405,436,1161,3632,358,1739,511,1047,42,0.000,4,1,11.766,0.199,-11.260,2.140,2.660,-0.215,-0.204,0.942,0.052,0.192,-0.010,0.000,0.000,0.841,0.150,2,2,1,2,7,255,1296,250,1243,1296
stim,1253,1253,1,126381.369,0.557,0.066,0.078,-0.824,3391,454,1163,3625,363,1764,505,1049,42,0.000,4,1,10.382,0.172,-10.100,2.080,1.200,-0.211,-0.215,0.953,0.052,0.164,-0.080,0.000,0.000,0.841,0.150,2,2,1,2,7,255,1296,250,1248,1296
stim,1253,1253,1,126386.369,0.557,0.066,0.078,-0.824,3427,365,1173,3657,357,1765,503,1048,42,0.000,4,1,10.607,0.087,-10.460,0.680,1.620,-0.221,-0.195,0.952,0.034,0.080,-0.104,0.000,0.000,0.841,0.150,2,2,1,2,7,255,1296,250,1253,1296
stim,1254,1254,1,126391.369,0.557,0.066,0.078,-0.824,3401,477,1145,3627,365,1768,507,1051,42,0.000,4,1,12.052,0.052,-11.800,1.360,2.040,-0.222,-0.194,0.942,-0.052,0.006,-0.104,0.000,0.000,0.841,0.150,2,2,1,2,7,255,1296,250,1258,1296
stim,1281,1281,1,126396.369,0.557,0.066,0.078,-0.824,3403,409,1165,3643,364,1773,493,1059,42,0.000,4,1,10.951,0.068,-10.700,1.480,1.800,-0.219,-0.194,0.961,-0.068,0.006,-0.104,0.000,0.000,0.841,0.150,2,2,1,2,7,255,1296,250,1263,1296
stim,1281,1281,1,126401.369,0.557,0.067,0.079,-0.824,3406,535,1165,3632,353,1781,493,1056,42,0.000,4,1,10.519,0.119,-10.220,0.800,2.360,-0.223,-0.184,0.956,-0.116,-0.026,-0.088,0.000,0.000,0.841,0.150,2,2,1,2,7,255,1296,250,1268,1296
stim,1281,1281,1,126406.369,0.557,0.067,0.079,-0.824,3400,567,1177,3657,351,1757,495,1063,42,0.000,4,1,9.712,0.186,-9.240,1.100,2.780,-0.221,-0.183,0.957,-0.182,-0.038,-0.078,0.000,0.000,0.841,0.150,2,2,1,2,7,255,1296,250,1273,1296
stim,1281,1281,1,126411.369,0.557,0.067,0.079,-0.824,3432,541,1149,3622,349,1715,505,1061,42,0.000,4,1,9.279,0.186,-8.820,1.360,2.540,-0.218,-0.191,0.954,-0.182,-0.038,-0.088,0.000,0.000,0.841,0.150,2,2,1,2,7,255,1296,250,1278,1296
stim,1343,1343,1,126416.369,0.556,0.067,0.079,-0.824,3435,559,1173,3645,348,1741,504,1078,42,0.000,4,1,8.194,0.171,-7.720,1.300,2.420,-0.221,-0.186,0.955,-0.168,-0.034,-0.090,0.000,0.000,0.841,0.150,2,2,1,2,7,255,1296,250,1283,1296
stim,1343,1343,1,126421.369,0.556,0.067,0.079,-0.825,3387,591,1168,3615,341,1773,488,1065,42,0.000,4,1,8.000,0.148,-7.420,1.100,2.780,-0.225,-0.188,0.956,-0.144,-0.034,-0.090,0.000,0.000,0.841,0.150,2,2,1,2,7,255,1296,250,1288,1296
stim,1343,1343,1,126426.369,0.556,0.067,0.079,-0.825,3392,587,1179,3624,343,1767,496,1073,42,0.000,4,1,7.383,0.154,-6.600,1.480,2.960,-0.224,-0.188,0.960,-0.148,-0.042,-0.068,0.000,0.000,0.841,0.150,2,2,1,2,7,255,1296,250,1293,1296
stim,1343,1343,0,126431.369,0.556,0.067,0.079,-0.825,3405,594,1190,3619,350,1756,491,1080,42,0.000,4,1,8.184,0.150,-7.380,1.840,3.020,-0.222,-0.193,0.952,-0.144,-0.042,-0.068,0.000,0.000,0.841,0.150,2,2,0,2,7,255,1296,250,2,1296
stim,1344,1344,0,126436.369,0.556,0.067,0.079,-0.825,3404,552,1191,3614,336,1780,479,1079,42,0.000,4,1,7.341,0.090,-6.880,1.780,1.840,-0.221,-0.214,0.959,-0.088,-0.018,-0.026,0.000,0.000,0.841,0.150,2,2,0,2,7,255,1296,250,7,1296
stim,1344,1344,0,126441.369,0.556,0.067,0.079,-0.825,3403,581,1188,3623,340,1774,508,1077,42,0.000,4,1,6.669,0.035,-6.500,1.220,0.860,-0.228,-0.208,0.958,0.034,-0.010,0.002,0.000,0.000,0.841,0.150,2,2,0,2,7,255,1296,250,12,1296
stim,1344,1344,0,126446.369,0.556,0.067,0.079,-0.825,3407,586,1171,3625,335,1780,502,1081,42,0.000,4,1,6.373,0.059,-6.180,1.100,1.100,-0.233,-0.210,0.961,0.058,-0.010,0.012,0.000,0.000,0.841,0.150,2,2,0,2,7,255,1296,250,17,1296
stim,1344,1344,0,126451.369,0.556,0.068,0.080,-0.825,3404,583,1168,3627,340,1761,478,1081,42,0.000,4,1,8.124,0.047,-7.700,1.460,2.140,-0.229,-0.205,0.953,0.034,-0.032,0.002,0.000,0.000,0.841,0.150,2,2,0,2,7,255,1296,250,22,1296
stim,1344,1344,0,126456.369,0.555,0.068,0.080,-0.825,3407,593,1175,3627,340,1763,488,1081,42,0.000,4,1,8.345,0.066,-7.980,2.000,1.400,-0.220,-0.235,0.958,0.058,-0.032,0.034,0.000,0.000,0.841,0.150,2,2,0,2,7,255,1296,250,27,1296
stim,1344,1344,0,126461.369,0.555,0.068,0.080,-0.825,3412,603,1171,3624,345,1776,485,1077,42,0.000,4,1,6.044,0.078,-6.020,0.540,0.060,-0.227,-0.218,0.968,0.064,0.044,0.034,0.000,0.000,0.841,0.150,2,2,0,2,7,255,1296,250,32,1296
stim,1359,1359,0,126466.371,0.555,0.068,0.080,-0.825,3400,602,1163,3631,353,1764,486,1079,42,0.000,4,1,5.114,0.078,-4.960,0.900,0.860,-0.236,-0.208,0.964,0.064,0.044,0.076,0.000,0.000,0.841,0.150,2,2,0,2,7,255,1296,250,37,1296
stim,1359,1359,0,126471.369,0.555,0.068,0.080,-0.825,3400,609,1149,3628,351,1769,493,1078,42,0.000,4,1,4.655,0.051,-4.160,0.720,1.960,-0.231,-0.212,0.962,0.044,-0.026,0.076,0.000,0.000,0.841,0.150,2,2,0,2,7,255,1296,250,42,1296
stim,1359,1359,0,126476.369,0.555,0.068,0.080,-0.825,3409,604,1117,3635,368,1786,507,1080,42,0.000,4,1,4.720,0.051,-3.860,0.720,2.620,-0.226,-0.215,0.953,0.044,-0.026,0.052,0.000,0.000,0.841,0.150,2,2,0,2,7,255,1296,250,47,1296
stim,1359,1359,0,126481.369,0.555,0.068,0.081,-0.825,3400,611,1144,3623,361,1787,497,1076,42,0.000,4,1,5.112,0.078,-4.460,0.540,2.440,-0.221,-0.220,0.952,0.074,0.026,-0.036,0.000,0.000,0.841,0.150,2,2,0,2,7,255,1296,250,52,1296
stim,1375,1375,0,126486.369,0.555,0.068,0.081,-0.825,3409,605,1147,3624,364,1801,503,1079,42,0.000,4,1,5.336,0.078,-4.880,0.400,2.120,-0.226,-0.216,0.955,0.074,0.026,-0.036,0.000,0.000,0.841,0.150,2,2,0,2,7,255,1296,250,57,1296
stim,1375,1375,0,126491.369,0.555,0.068,0.081,-0.825,3416,603,1149,3610,371,1803,495,1076,42,0.000,4,1,5.276,0.070,-4.740,0.280,2.300,-0.227,-0.214,0.960,0.066,0.024,-0.022,0.000,0.000,0.841,0.150,2,2,0,2,7,255,1296,250,62,1296
stim,1375,1375,0,126496.370,0.555,0.068,0.081,-0.825,3416,611,1165,3619,367,1791,505,1084,42,0.000,4,1,4.898,0.045,-4.240,0.400,2.420,-0.226,-0.212,0.966,0.040,0.020,0.032,0.000,0.000,0.841,0.150,2,2,0,2,7,255,1296,250,67,1296
stim,1375,1375,0,126501.369,0.555,0.068,0.081,-0.825,3415,607,1166,3623,363,1784,509,1084,42,0.000,4,1,4.511,0.045,-3.860,0.720,2.220,-0.227,-0.217,0.962,0.040,0.020,0.050,0.000,0.000,0.841,0.150,2,2,0,2,7,255,1296,250,72,1296
stim,1375,1375,0,126506.370,0.554,0.068,0.081,-0.825,3410,608,1099,3621,364,1801,512,1083,42,0.000,4,1,4.505,0.059,-3.620,0.340,2.660,-0.230,-0.223,0.955,0.056,0.020,0.050,0.000,0.000,0.841,0.150,2,2,0,2,7,255,1296,250,77,1296
stim,1375,1375,0,126511.369,0.554,0.068,0.081,-0.826,3403,615,1101,3616,359,1812,522,1083,42,0.000,4,1,4.897,0.056,-3.540,0.160,3.380,-0.226,-0.207,0.953,0.056,0.004,0.004,0.000,0.000,0.841,0.150,2,2,0,2,7,255,1296,250,82,1296
stim,1398,1398,0,126516.369,0.554,0.068,0.081,-0.826,3401,617,1107,3624,371,1803,531,1081,42,0.000,4,1,4.423,0.018,-3.660,0.640,2.400,-0.217,-0.206,0.961,-0.018,0.004,0.000,0.000,0.000,0.841,0.150,2,2,0,2,7,255,1296,250,87,1296
stim,1398,1398,0,126521.369,0.554,0.068,0.081,-0.826,3416,613,1107,3626,363,1843,531,1084,42,0.000,4,1,3.723,0.049,-3.480,0.460,1.240,-0.230,-0.232,0.961,-0.018,0.046,0.000,0.000,0.000,0.841,0.150,2,2,0,2,7,255,1296,250,92,1296
stim,1399,1399,0,126526.370,0.554,0.068,0.081,-0.826,3401,611,1075,3631,365,1815,531,1083,42,0.000,4,1,4.236,0.049,-3.280,-0.460,2.640,-0.237,-0.208,0.956,0.016,0.046,0.000,0.000,0.000,0.841,0.150,2,2,0,2,7,255,1296,250,97,1296
stim,1399,1399,0,126531.369,0.554,0.068,0.081,-0.826,3415,602,1071,3619,361,1812,533,1083,42,0.000,4,1,3.849,0.018,-3.280,0.460,1.960,-0.222,-0.195,0.968,0.016,-0.008,0.048,0.000,0.000,0.841,0.150,2,2,0,2,7,255,1296,250,102,1296
stim,1457,1457,0,126536.369,0.554,0.068,0.081,-0.826,3402,596,1069,3615,358,1815,533,1083,42,0.000,4,1,3.205,0.018,-2.780,0.220,1.580,-0.232,-0.231,0.955,0.016,-0.008,0.024,0.000,0.000,0.841,0.150,2,2,0,2,7,255,1296,250,107,1296
stim,1457,1457,0,126541.369,0.554,0.068,0.081,-0.826,3410,599,1096,3621,357,1815,532,1083,42,0.000,4,1,4.351,0.172,-2.840,-0.940,3.160,-0.224,-0.180,0.952,-0.172,-0.008,0.024,0.000,0.000,0.841,0.150,2,2,0,2,7,255,1296,250,112,1296
stim,1457,1457,0,126546.370,0.554,0.068,0.081,-0.826,3399,589,1111,3620,363,1815,533,1083,42,0.000,4,1,3.243,0.053,-2.900,1.140,0.900,-0.216,-0.210,0.965,-0.050,0.018,0.024,0.000,0.000,0.841,0.150,2,2,0,2,7,255,1296,250,117,1296
stim,1457,1457,0,126551.369,0.554,0.068,0.081,-0.826,3400,593,1107,3615,361,1803,535,1079,42,0.000,4,1,3.352,0.050,-2.580,-0.580,2.060,-0.229,-0.224,0.950,-0.050,0.004,-0.042,0.000,0.000,0.841,0.150,2,2,0,2,7,255,1296,250,122,1296
stim,1457,1457,0,126556.369,0.554,0.068,0.081,-0.826,3398,583,1105,3619,359,1789,533,1083,42,0.000,4,1,3.074,0.050,-2.520,0.040,1.760,-0.223,-0.185,0.960,-0.050,0.004,-0.040,0.000,0.000,0.841,0.150,2,2,0,2,7,255,1296,250,127,1296
stim,1457,1457,0,126561.369,0.553,0.068,0.081,-0.826,3409,589,1102,3619,357,1803,527,1080,42,0.000,4,1,2.956,0.126,-2.080,0.640,2.000,-0.224,-0.226,0.960,0.126,0.004,-0.040,0.000,0.000,0.841,0.150,2,2,0,2,7,255,1296,250,132,1296
stim,1458,1458,0,126566.369,0.553,0.068,0.081,-0.826,3405,583,1109,3613,343,1801,531,1087,42,0.000,4,1,2.761,0.049,-1.660,-0.340,2.180,-0.224,-0.214,0.955,0.040,0.028,-0.030,0.000,0.000,0.841,0.150,2,2,0,2,7,255,1296,250,137,1296
stim,1458,1458,0,126571.369,0.553,0.068,0.081,-0.826,3391,570,1093,3619,345,1803,529,1083,42,0.000,4,1,2.012,0.052,-1.280,0.400,1.500,-0.220,-0.207,0.955,0.040,0.034,-0.030,0.000,0.000,0.841,0.150,2,2,0,2,7,255,1296,250,142,1296
stim,1458,1458,0,126576.369,0.553,0.068,0.081,-0.826,3401,571,1093,3623,325,1801,529,1079,42,0.000,4,1,2.217,0.052,-1.820,0.460,1.180,-0.226,-0.239,0.954,0.040,0.034,-0.030,0.000,0.000,0.841,0.150,2,2,0,2,7,255,1296,250,147,1296
stim,1458,1458,0,126581.369,0.553,0.068,0.081,-0.826,3405,557,1061,3625,327,1787,531,1083,42,0.000,4,1,1.936,0.051,-1.460,-0.280,1.240,-0.226,-0.188,0.943,-0.038,0.034,-0.054,0.000,0.000,0.841,0.150,2,2,0,2,7,255,1296,250,152,1296
stim,1459,1459,0,126586.369,0.553,0.068,0.081,-0.826,3388,568,1060,3609,312,1786,529,1079,42,0.000,4,1,2.694,0.280,-1.940,0.820,1.680,-0.223,-0.244,0.960,0.264,0.092,0.018,0.000,0.000,0.841,0.150,2,2,0,2,7,255,1296,250,157,1296
stim,1459,1459,0,126591.369,0.553,0.068,0.081,-0.826,3391,593,1057,3612,304,1789,529,1081,42,0.000,4,1,1.817,0.143,-1.260,-0.160,1.300,-0.223,-0.192,0.942,-0.126,-0.068,-0.188,0.000,0.000,0.841,0.150,2,2,0,2,7,255,1296,250,162,1296
stim,1460,1460,0,126596.369,0.553,0.068,0.081,-0.826,3383,599,1053,3609,299,1779,527,1081,42,0.000,4,1,2.609,0.173,-1.520,0.580,2.040,-0.219,-0.227,0.953,0.134,0.110,-0.026,0.000,0.000,0.841,0.150,2,2,0,2,7,255,1296,250,167,1296
stim,1460,1460,0,126601.369,0.553,0.068,0.081,-0.826,3397,585,1059,3606,283,1757,524,1081,42,0.000,4,1,1.503,0.063,-1.200,0.520,0.740,-0.221,-0.214,0.946,0.052,0.036,-0.114,0.000,0.000,0.841,0.150,2,2,0,2,7,255,1296,250,172,1296
stim,1488,1488,0,126606.369,0.553,0.068,0.081,-0.826,3389,537,1059,3613,283,1736,520,1079,42,0.000,4,1,2.288,0.063,-1.620,0.220,1.600,-0.223,-0.191,0.937,0.052,0.036,-0.114,0.000,0.000,0.841,0.150,2,2,0,2,7,255,1296,250,177,1296
stim,1488,1488,0,126611.369,0.553,0.068,0.081,-0.827,3398,571,1055,3603,279,1722,525,1077,42,0.000,4,1,2.602,0.063,-1.800,0.880,1.660,-0.219,-0.224,0.950,0.052,0.036,-0.114,0.000,0.000,0.841,0.150,2,2,0,2,7,255,1296,250,182,1296
stim,1488,1488,0,126616.369,0.553,0.068,0.081,-0.827,3373,551,1053,3609,271,1709,520,1083,42,0.000,4,1,2.647,0.139,-1.860,0.400,1.840,-0.223,-0.183,0.938,-0.114,-0.080,-0.242,0.000,0.000,0.841,0.150,2,2,0,2,7,255,1296,250,187,1296
stim,1488,1488,0,126621.369,0.553,0.068,0.081,-0.827,3387,569,1047,3603,276,1727,518,1077,42,0.000,4,1,3.406,0.070,-2.040,0.760,2.620,-0.216,-0.204,0.948,-0.056,0.042,-0.118,0.000,0.000,0.841,0.150,2,2,0,2,7,255,1296,250,192,1296
stim,1552,1552,0,126626.369,0.553,0.068,0.081,-0.827,3387,555,1049,3597,279,1725,533,1077,42,0.000,4,1,2.810,0.061,-1.860,1.060,1.820,-0.217,-0.203,0.944,-0.056,0.024,-0.152,0.000,0.000,0.841,0.150,2,2,0,2,7,255,1296,250,197,1296
stim,1552,1552,0,126631.369,0.553,0.068,0.081,-0.827,3388,555,1041,3606,267,1718,536,1075,42,0.000,4,1,3.128,0.061,-2.340,0.880,1.880,-0.223,-0.196,0.939,-0.056,0.024,-0.152,0.000,0.000,0.841,0.150,2,2,0,2,7,255,1296,250,202,1296
stim,1552,1552,0,126636.369,0.553,0.068,0.081,-0.827,3387,451,1022,3613,281,1723,535,1081,42,0.000,4,1,3.981,0.077,-2.940,1.120,2.440,-0.221,-0.195,0.944,-0.070,-0.032,-0.160,0.000,0.000,0.841,0.150,2,2,0,2,7,255,1296,250,207,1296
stim,1553,1553,0,126641.369,0.552,0.068,0.081,-0.827,3383,489,1012,3607,291,1765,535,1072,42,0.000,4,1,4.006,0.077,-3.060,1.180,2.300,-0.222,-0.200,0.945,-0.070,-0.032,-0.160,0.000,0.000,0.841,0.150,2,2,0,2,7,255,1296,250,212,1296
stim,1553,1553,0,126646.369,0.552,0.068,0.081,-0.827,3401,436,1011,3613,313,1770,535,1070,42,0.000,4,1,4.291,0.057,-3.180,1.240,2.600,-0.224,-0.203,0.946,-0.052,-0.024,-0.132,0.000,0.000,0.841,0.150,2,2,0,2,7,255,1296,250,217,1296
stim,1553,1553,0,126651.369,0.552,0.068,0.081,-0.827,3401,433,1019,3620,300,1769,533,1069,42,0.000,4,1,4.721,0.057,-3.720,1.300,2.600,-0.222,-0.194,0.942,-0.052,-0.024,-0.132,0.000,0.000,0.841,0.150,2,2,0,2,7,255,1296,250,222,1296
stim,1553,1553,0,126656.369,0.552,0.068,0.081,-0.827,3385,485,1029,3621,291,1773,535,1075,42,0.000,4,1,4.725,0.038,-3.900,1.480,2.220,-0.224,-0.203,0.947,-0.028,-0.026,-0.114,0.000,0.000,0.841,0.150,2,2,0,2,7,255,1296,250,227,1296
stim,1553,1553,0,126661.369,0.552,0.068,0.081,-0.827,3385,501,1029,3623,299,1775,532,1074,42,0.000,4,1,5.137,0.037,-4.080,1.420,2.780,-0.227,-0.211,0.948,-0.026,-0.026,-0.104,0.000,0.000,0.841,0.150,2,2,0,2,7,255,1296,250,232,1296
stim,1553,1553,0,126666.369,0.552,0.068,0.081,-0.827,3401,456,1017,3614,289,1775,535,1075,42,0.000,4,1,5.663,0.021,-4.500,1.400,3.140,-0.225,-0.205,0.946,-0.006,-0.020,-0.104,0.000,0.000,0.841,0.150,2,2,0,2,7,255,1296,250,237,1296
stim,1553,1553,0,126671.369,0.552,0.068,0.081,-0.827,3399,399,1006,3621,299,1769,535,1074,42,0.000,4,1,5.562,0.021,-4.720,1.520,2.520,-0.225,-0.201,0.947,-0.006,-0.020,-0.104,0.000,0.000,0.841,0.150,2,2,0,2,7,255,1296,250,242,1296
stim,1553,1553,0,126676.369,0.552,0.068,0.081,-0.827,3400,469,1016,3623,297,1770,534,1071,42,0.000,4,1,5.845,0.034,-5.020,1.520,2.580,-0.228,-0.205,0.950,-0.010,-0.032,-0.104,0.000,0.000,0.841,0.150,2,2,0,2,7,255,1296,250,247,1296
stim,1553,1553,0,126681.369,0.552,0.068,0.081,-0.827,3401,467,1003,3622,282,1773,532,1073,42,0.000,4,1,6.656,0.052,-5.380,1.400,3.660,-0.228,-0.202,0.950,-0.036,-0.038,-0.066,0.000,0.000,0.841,0.150,2,2,0,2,7,255,1296,250,252,1296
stim,1553,1553,0,126686.369,0.551,0.068,0.081,-0.827,3401,416,993,3629,277,1775,533,1076,42,0.000,4,1,6.801,0.052,-5.420,1.460,3.840,-0.224,-0.199,0.950,-0.036,-0.038,-0.066,0.000,0.000,0.841,0.150,2,2,0,2,7,255,1296,250,257,1296
stim,1553,1553,0,126691.369,0.551,0.068,0.081,-0.828,3389,429,1000,3629,279,1775,536,1072,42,0.000,4,1,6.480,0.042,-5.360,1.580,3.280,-0.224,-0.208,0.951,-0.036,-0.022,-0.066,0.000,0.000,0.841,0.150,2,2,0,2,7,255,1296,250,262,1296
stim,1584,1584,0,126696.369,0.551,0.068,0.081,-0.828,3387,473,997,3625,282,1774,533,1077,42,0.000,4,1,6.533,0.018,-5.460,1.580,3.220,-0.228,-0.212,0.947,0.002,-0.018,-0.070,0.000,0.000,0.841,0.150,2,2,0,2,7,255,1296,250,267,1296
stim,1584,1584,0,126701.369,0.551,0.069,0.081,-0.828,3404,531,1016,3621,295,1811,533,1079,42,0.000,4,1,7.021,0.027,-5.880,1.380,3.580,-0.229,-0.208,0.948,0.020,-0.018,-0.060,0.000,0.000,0.841,0.150,2,2,0,2,7,255,1296,250,272,1296
stim,1584,1584,0,126706.369,0.551,0.069,0.081,-0.828,3389,543,999,3623,275,1785,531,1081,42,0.000,4,1,7.327,0.028,-6.060,1.380,3.880,-0.228,-0.209,0.951,0.020,-0.020,-0.060,0.000,0.000,0.841,0.150,2,2,0,2,7,255,1296,250,277,1296
stim,1584,1584,0,126711.369,0.551,0.069,0.081,-0.828,3399,531,988,3628,271,1783,530,1079,42,0.000,4,1,7.119,0.028,-5.860,1.380,3.800,-0.228,-0.214,0.953,0.020,-0.020,-0.038,0.000,0.000,0.841,0.150,2,2,0,2,7,255,1296,250,282,1296
stim,1647,1647,0,126716.369,0.550,0.069,0.081,-0.828,3389,503,987,3625,269,1777,531,1077,42,0.000,4,1,6.778,0.042,-5.600,1.380,3.560,-0.230,-0.218,0.952,0.042,-0.004,-0.012,0.000,0.000,0.841,0.150,2,2,0,2,7,255,1296,250,287,1296
stim,1647,1647,0,126721.369,0.550,0.069,0.081,-0.828,3397,525,1003,3624,274,1769,531,1069,42,0.000,4,1,6.879,0.066,-5.660,1.320,3.680,-0.232,-0.214,0.946,0.066,-0.004,-0.012,0.000,0.000,0.841,0.150,2,2,0,2,7,255,1296,250,292,1296
stim,1647,1647,0,126726.369,0.550,0.069,0.082,-0.828,3388,529,999,3624,273,1773,533,1079,42,0.000,4,1,7.218,0.070,-5.820,1.260,4.080,-0.229,-0.212,0.948,0.066,-0.022,-0.054,0.000,0.000,0.841,0.150,2,2,0,2,7,255,1296,250,297,1296
stim,1647,1647,0,126731.369,0.550,0.069,0.082,-0.828,3409,523,1000,3633,275,1769,535,1077,42,0.000,4,1,7.191,0.055,-5.760,1.180,4.140,-0.227,-0.217,0.952,0.050,-0.022,-0.054,0.000,0.000,0.841,0.150,2,2,0,2,7,255,1296,250,302,1296
stim,1647,1647,0,126736.369,0.550,0.069,0.082,-0.828,3403,531,985,3635,278,1765,533,1077,42,0.000,4,1,6.717,0.051,-5.560,1.180,3.580,-0.226,-0.217,0.953,0.046,0.022,-0.010,0.000,0.000,0.841,0.150,2,2,0,2,7,255,1296,250,307,1296
stim,1647,1647,0,126741.369,0.550,0.070,0.082,-0.828,3401,503,975,3630,277,1766,535,1077,42,0.000,4,1,6.383,0.055,-5.360,1.120,3.280,-0.230,-0.217,0.951,0.050,0.022,-0.010,0.000,0.000,0.841,0.150,2,2,0,2,7,255,1296,250,312,1296
stim,1647,1647,0,126746.369,0.549,0.070,0.082,-0.829,3400,455,959,3622,286,1787,535,1075,42,0.000,4,1,6.475,0.047,-5.420,1.060,3.380,-0.231,-0.215,0.952,0.046,-0.008,-0.008,0.000,0.000,0.841,0.150,2,2,0,2,7,255,1296,250,317,1296
stim,1647,1647,0,126751.369,0.549,0.070,0.082,-0.829,3400,504,948,3623,287,1805,535,1072,42,0.000,4,1,6.922,0.048,-5.460,1.060,4.120,-0.230,-0.211,0.950,0.042,-0.024,-0.012,0.000,0.000,0.841,0.150,2,2,0,2,7,255,1296,250,322,1296
stim,1647,1647,0,126756.369,0.549,0.070,0.082,-0.829,3401,566,936,3631,288,1808,534,1076,42,0.000,4,1,7.159,0.026,-5.640,1.060,4.280,-0.227,-0.213,0.950,0.010,-0.024,-0.034,0.000,0.000,0.841,0.150,2,2,0,2,7,255,1296,250,327,1296
stim,1647,1647,0,126761.369,0.549,0.070,0.082,-0.829,3392,605,917,3624,285,1813,534,1075,42,0.000,4,1,6.929,0.012,-5.560,1.120,3.980,-0.225,-0.215,0.950,0.010,0.006,-0.036,0.000,0.000,0.841,0.150,2,2,0,2,7,255,1296,250,332,1296
stim,1663,1663,0,126766.369,0.549,0.070,0.082,-0.829,3399,589,943,3633,282,1812,529,1078,42,0.000,4,1,6.749,0.033,-5.620,1.360,3.480,-0.224,-0.216,0.951,0.014,0.030,-0.034,0.000,0.000,0.841,0.150,2,2,0,2,7,255,1296,250,337,1296
stim,1663,1663,0,126771.369,0.549,0.070,0.082,-0.829,3399,602,952,3623,281,1828,529,1075,42,0.000,4,1,6.363,0.033,-5.480,1.100,3.040,-0.228,-0.219,0.954,0.014,0.030,-0.026,0.000,0.000,0.841,0.150,2,2,0,2,7,255,1296,250,342,1296
stim,1663,1663,0,126776.369,0.548,0.070,0.083,-0.829,3401,605,949,3620,282,1816,533,1079,42,0.000,4,1,5.888,0.046,-5.040,1.040,2.860,-0.234,-0.219,0.956,0.038,0.026,0.014,0.000,0.000,0.841,0.150,2,2,0,2,7,255,1296,250,347,1296
stim,1663,1663,0,126781.369,0.548,0.070,0.083,-0.829,3401,613,953,3623,277,1815,532,1081,42,0.000,4,1,5.800,0.054,-4.540,0.800,3.520,-0.236,-0.217,0.955,0.044,-0.032,0.038,0.000,0.000,0.841,0.150,2,2,0,2,7,255,1296,250,352,1296
stim,1663,1663,0,126786.369,0.548,0.071,0.083,-0.829,3399,610,939,3621,279,1815,533,1081,42,0.000,4,1,6.171,0.066,-4.480,0.180,4.240,-0.230,-0.227,0.950,0.058,-0.032,0.038,0.000,0.000,0.841,0.150,2,2,0,2,7,255,1296,250,357,1296
stim,1663,1663,0,126791.369,0.548,0.071,0.083,-0.829,3413,523,931,3571,295,1823,523,1081,42,0.000,4,1,5.731,0.119,-4.340,0.680,3.680,-0.228,-0.228,0.952,0.116,0.028,0.012,0.000,0.000,0.841,0.150,2,2,0,2,7,255,1296,250,362,1296
stim,1665,1665,0,126796.369,0.548,0.071,0.083,-0.830,3409,484,907,3623,291,1811,527,1082,42,0.000,4,1,5.201,0.122,-4.100,0.620,3.140,-0.230,-0.228,0.957,0.116,0.038,0.012,0.000,0.000,0.841,0.150,2,2,0,2,7,255,1296,250,367,1296
stim,1665,1665,0,126801.370,0.548,0.071,0.083,-0.830,3403,491,917,3625,281,1815,508,1084,42,0.000,4,1,4.344,0.113,-3.220,0.740,2.820,-0.234,-0.228,0.958,0.106,0.038,0.062,0.000,0.000,0.841,0.150,2,2,0,2,7,255,1296,250,372,1296
stim,1665,1665,0,126806.369,0.548,0.071,0.083,-0.830,3401,575,920,3624,281,1819,521,1093,42,0.000,4,1,3.904,0.106,-2.420,0.620,3.000,-0.236,-0.230,0.959,0.106,0.008,0.086,0.000,0.000,0.841,0.150,2,2,0,2,7,255,1296,250,377,1296
stim,1665,1665,0,126811.370,0.547,0.071,0.083,-0.830,3399,585,937,3628,275,1801,522,1083,42,0.000,4,1,4.365,0.134,-2.180,0.120,3.780,-0.234,-0.232,0.948,0.134,0.008,0.086,0.000,0.000,0.841,0.150,2,2,0,2,7,255,1296,250,382,1296
stim,1695,1695,0,126816.369,0.547,0.071,0.083,-0.830,3405,615,936,3622,293,1804,512,1096,42,0.000,4,1,4.329,0.138,-2.480,0.240,3.540,-0.229,-0.231,0.950,0.138,0.010,0.002,0.000,0.000,0.841,0.150,2,2,0,2,7,255,1296,250,387,1296
stim,1695,1695,0,126821.369,0.547,0.071,0.083,-0.830,3413,595,951,3575,303,1826,519,1097,42,0.000,4,1,3.868,0.148,-2.300,0.240,3.100,-0.229,-0.228,0.956,0.138,0.054,0.002,0.000,0.000,0.841,0.150,2,2,0,2,7,255,1296,250,392,1296
stim,1695,1695,0,126826.369,0.547,0.071,0.083,-0.830,3405,551,965,3624,293,1805,523,1101,42,0.000,4,1,3.319,0.102,-1.560,0.240,2.920,-0.231,-0.225,0.956,0.086,0.054,0.046,0.000,0.000,0.841,0.150,2,2,0,2,7,255,1296,250,397,1296
stim,1695,1695,0,126831.370,0.547,0.071,0.083,-0.830,3409,548,979,3627,291,1801,522,1105,42,0.000,4,1,3.208,0.067,-0.880,0.180,3.080,-0.233,-0.223,0.956,0.066,0.014,0.046,0.000,0.000,0.841,0.150,2,2,0,2,7,255,1296,250,402,1296
stim,1728,1728,0,126836.369,0.547,0.071,0.083,-0.830,3405,575,1001,3628,289,1801,524,1096,42,0.000,4,1,3.416,0.060,-0.460,0.180,3.380,-0.233,-0.223,0.955,0.060,-0.004,0.044,0.000,0.000,0.841,0.150,2,2,0,2,7,255,1296,250,407,1296
stim,1728,1728,0,126841.369,0.547,0.071,0.083,-0.830,3405,570,1005,3633,283,1799,523,1103,42,0.000,4,1,3.561,0.060,-0.020,0.060,3.560,-0.229,-0.226,0.954,0.060,-0.004,0.040,0.000,0.000,0.841,0.150,2,2,0,2,7,255,1296,250,412,1296
stim,1728,1728,0,126846.369,0.546,0.071,0.083,-0.830,3403,564,1003,3625,271,1815,524,1101,42,0.000,4,1,3.140,0.068,-0.260,-0.240,3.120,-0.230,-0.223,0.950,0.066,0.016,0.024,0.000,0.000,0.841,0.150,2,2,0,2,7,255,1296,250,417,1296
stim,1728,1728,0,126851.369,0.546,0.071,0.083,-0.830,3400,563,989,3625,280,1807,529,1100,42,0.000,4,1,2.530,0.069,-0.580,-0.120,2.460,-0.230,-0.223,0.953,0.066,0.020,0.016,0.000,0.000,0.841,0.150,2,2,0,2,7,255,1296,250,422,1296
stim,1728,1728,0,126856.369,0.546,0.071,0.083,-0.830,3399,589,1029,3624,303,1805,522,1105,42,0.000,4,1,2.363,0.058,-0.380,-0.240,2.320,-0.234,-0.221,0.957,0.056,0.016,0.016,0.000,0.000,0.841,0.150,2,2,0,2,7,255,1296,250,427,1296
stim,1728,1728,0,126861.369,0.546,0.071,0.083,-0.831,3400,573,1039,3624,279,1809,522,1100,42,0.000,4,1,2.706,0.045,0.220,-0.300,2.680,-0.234,-0.220,0.957,0.040,-0.020,0.052,0.000,0.000,0.841,0.150,2,2,0,2,7,255,1296,250,432,1296
stim,1766,1766,0,126866.370,0.546,0.071,0.083,-0.831,3409,569,1021,3624,283,1811,523,1099,42,0.000,4,1,2.912,0.043,0.780,-0.180,2.800,-0.232,-0.220,0.953,0.038,-0.020,0.052,0.000,0.000,0.841,0.150,2,2,0,2,7,255,1296,250,437,1296
stim,1766,1766,0,126871.369,0.546,0.071,0.083,-0.831,3403,581,1045,3624,307,1808,523,1104,42,0.000,4,1,2.900,0.037,0.900,-0.300,2.740,-0.229,-0.218,0.946,0.036,-0.008,0.006,0.000,0.000,0.841,0.150,2,2,0,2,7,255,1296,250,442,1296
stim,1766,1766,0,126876.369,0.546,0.071,0.083,-0.831,3412,570,1042,3625,327,1811,521,1099,42,0.000,4,1,2.435,0.036,0.520,-0.300,2.360,-0.227,-0.218,0.946,0.036,0.006,-0.066,0.000,0.000,0.841,0.150,2,2,0,2,7,255,1296,250,447,1296
stim,1766,1766,0,126881.369,0.546,0.070,0.083,-0.831,3415,574,1053,3639,327,1799,520,1095,42,0.000,4,1,1.883,0.034,-0.580,-1.640,0.720,-0.220,-0.214,0.952,0.024,0.024,-0.066,0.000,0.000,0.841,0.150,2,2,0,2,7,255,1296,250,452,1296
stim,1766,1766,0,126886.369,0.546,0.070,0.083,-0.831,3400,565,1045,3624,315,1783,509,1099,42,0.000,4,1,1.561,0.034,1.200,-0.540,0.840,-0.231,-0.224,0.947,0.024,0.024,-0.036,0.000,0.000,0.841,0.150,2,2,0,2,7,255,1296,250,457,1296
stim,1766,1766,0,126891.369,0.546,0.070,0.082,-0.831,3403,553,1061,3625,327,1773,508,1095,42,0.000,4,1,2.560,0.055,1.740,-0.840,1.680,-0.239,-0.219,0.955,0.054,0.008,-0.034,0.000,0.000,0.841,0.150,2,2,0,2,7,255,1296,250,462,1296
stim,1797,1797,0,126896.369,0.546,0.070,0.082,-0.831,3391,565,1047,3637,333,1790,519,1085,42,0.000,4,1,3.938,0.080,2.340,-0.420,3.140,-0.235,-0.220,0.951,0.070,-0.038,0.000,0.000,0.000,0.841,0.150,2,2,0,2,7,255,1296,250,467,1296
stim,1797,1797,0,126901.369,0.546,0.070,0.082,-0.831,3400,567,1062,3629,326,1795,521,1095,42,0.000,4,1,4.340,0.080,2.640,-0.180,3.440,-0.225,-0.224,0.950,0.070,-0.038,0.000,0.000,0.000,0.841,0.150,2,2,0,2,7,255,1296,250,472,1296
stim,1797,1797,0,126906.369,0.546,0.070,0.082,-0.831,3400,557,1061,3631,325,1789,520,1087,42,0.000,4,1,4.464,0.099,3.020,-0.420,3.260,-0.222,-0.221,0.952,0.070,0.070,-0.020,0.000,0.000,0.841,0.150,2,2,0,2,7,255,1296,250,477,1296
stim,1797,1797,0,126911.369,0.546,0.070,0.082,-0.831,3392,582,1066,3615,325,1783,518,1081,42,0.000,4,1,4.336,0.096,3.300,-0.540,2.760,-0.221,-0.221,0.949,0.046,0.084,-0.026,0.000,0.000,0.841,0.150,2,2,0,2,7,255,1296,250,482,1296
stim,1797,1797,0,126916.369,0.546,0.069,0.082,-0.831,3401,588,1065,3624,337,1783,518,1079,42,0.000,4,1,4.261,0.092,3.600,-0.300,2.260,-0.224,-0.216,0.950,0.038,0.084,-0.040,0.000,0.000,0.841,0.150,2,2,0,2,7,255,1296,250,487,1296
stim,1797,1797,0,126921.369,0.546,0.069,0.082,-0.831,3415,584,1051,3615,336,1780,509,1080,42,0.000,4,1,4.779,0.055,4.020,-0.360,2.560,-0.228,-0.215,0.949,0.026,0.048,-0.040,0.000,0.000,0.841,0.150,2,2,0,2,7,255,1296,250,492,1296
stim,1830,1830,0,126926.369,0.546,0.069,0.081,-0.831,3411,584,1041,3625,331,1767,522,1077,42,0.000,4,1,5.170,0.025,4.380,-0.600,2.680,-0.224,-0.210,0.949,0.008,0.024,-0.040,0.000,0.000,0.841,0.150,2,2,0,2,7,255,1296,250,497,1296
stim,1830,1830,0,126931.369,0.545,0.069,0.081,-0.831,3403,599,1063,3630,331,1773,519,1083,42,0.000,4,1,5.532,0.023,2.980,0.440,4.640,-0.239,-0.198,0.932,-0.022,0.006,-0.064,0.000,0.000,0.841,0.150,2,2,0,2,7,255,1296,250,502,1296
stim,1830,1830,0,126936.369,0.545,0.069,0.081,-0.832,3416,585,1033,3637,334,1779,519,1079,42,0.000,4,1,6.559,0.033,3.460,-0.600,5.540,-0.226,-0.227,0.957,-0.022,0.024,-0.064,0.000,0.000,0.841,0.150,2,2,0,2,7,255,1296,250,507,1296
stim,1830,1830,0,126941.369,0.545,0.068,0.081,-0.832,3409,583,1063,3631,341,1773,521,1069,42,0.000,4,1,7.055,0.038,4.360,-0.540,5.520,-0.217,-0.194,0.945,-0.030,0.024,-0.146,0.000,0.000,0.841,0.150,2,2,0,2,7,255,1296,250,512,1296
stim,1830,1830,0,126946.369,0.545,0.068,0.080,-0.832,3412,583,1048,3639,347,1779,517,1070,42,0.000,4,1,5.445,0.142,4.360,-0.100,3.260,-0.213,-0.204,0.954,-0.110,0.090,-0.050,0.000,0.000,0.841,0.150,2,2,0,2,7,255,1296,250,517,1296
stim,1830,1830,0,126951.369,0.545,0.068,0.080,-0.832,3418,543,1081,3626,347,1781,508,1073,42,0.000,4,1,4.557,0.160,4.220,0.020,1.720,-0.226,-0.187,0.945,-0.158,0.024,-0.136,0.000,0.000,0.841,0.150,2,2,0,2,7,255,1296,250,522,1296
stim,1855,1855,0,126956.369,0.545,0.068,0.080,-0.832,3413,552,1059,3627,340,1783,523,1075,42,0.000,4,1,3.300,0.193,2.140,0.740,2.400,-0.241,-0.174,0.937,-0.178,-0.074,-0.136,0.000,0.000,0.841,0.150,2,2,0,2,7,255,1296,250,527,1296
stim,1855,1855,0,126961.369,0.545,0.068,0.079,-0.832,3407,595,1080,3629,339,1783,499,1075,42,0.000,4,1,3.898,0.318,-0.540,-0.040,3.860,-0.252,-0.187,0.950,-0.178,-0.264,-0.136,0.000,0.000,0.841,0.150,2,2,0,2,7,255,1296,250,532,1296
stim,1855,1855,0,126966.369,0.545,0.068,0.079,-0.832,3411,537,1081,3635,333,1784,518,1078,42,0.000,4,1,6.077,0.279,0.560,-0.360,6.040,-0.237,-0.202,0.958,-0.090,-0.264,-0.032,0.000,0.000,0.841,0.150,2,2,0,2,7,255,1296,250,537,1296
stim,1855,1855,0,126971.369,0.545,0.067,0.079,-0.832,3417,595,1107,3625,333,1787,503,1081,42,0.000,4,1,4.765,0.122,-0.480,0.080,4.740,-0.228,-0.188,0.959,-0.090,-0.082,0.002,0.000,0.000,0.841,0.150,2,2,0,2,7,255,1296,250,542,1296
stim,1855,1855,0,126976.369,0.545,0.067,0.079,-0.832,3411,599,1107,3638,332,1785,505,1071,42,0.000,4,1,4.128,0.096,-1.880,1.240,3.460,-0.240,-0.198,0.961,-0.050,-0.082,0.042,0.000,0.000,0.841,0.150,2,2,0,2,7,255,1296,250,547,1296
stim,1855,1855,0,126981.369,0.545,0.068,0.079,-0.832,3411,595,1121,3623,329,1775,504,1065,42,0.000,4,1,3.903,0.123,-2.620,0.800,2.780,-0.250,-0.209,0.969,-0.050,-0.112,0.072,0.000,0.000,0.841,0.150,2,2,0,2,7,255,1296,250,552,1296
stim,1872,1872,0,126986.369,0.544,0.068,0.079,-0.832,3419,580,1120,3635,314,1783,503,1056,42,0.000,4,1,5.669,0.125,-3.220,-0.240,4.660,-0.245,-0.210,0.959,0.056,-0.112,0.084,0.000,0.000,0.841,0.150,2,2,0,2,7,255,1296,250,557,1296
stim,1872,1872,0,126991.369,0.544,0.068,0.079,-0.833,3405,573,1131,3635,311,1777,497,1063,42,0.000,4,1,6.640,0.135,-4.200,0.800,5.080,-0.238,-0.217,0.954,0.078,-0.110,0.084,0.000,0.000,0.841,0.150,2,2,0,2,7,255,1296,250,562,1296
stim,1872,1872,0,126996.369,0.544,0.068,0.079,-0.833,3407,572,1145,3635,320,1775,500,1053,42,0.000,4,1,7.281,0.124,-4.980,1.900,4.960,-0.238,-0.223,0.963,0.120,-0.030,0.084,0.000,0.000,0.841,0.150,2,2,0,2,7,255,1296,250,567,1296
stim,1872,1872,0,127001.369,0.544,0.068,0.079,-0.833,3403,582,1134,3637,317,1768,500,1023,42,0.000,4,1,6.408,0.121,-4.720,1.460,4.080,-0.224,-0.230,0.977,0.120,0.012,0.128,0.000,0.000,0.841,0.150,2,2,0,2,7,255,1296,250,572,1296
stim,1872,1872,0,127006.369,0.544,0.068,0.079,-0.833,3399,579,1135,3624,317,1764,505,1053,42,0.000,4,1,4.516,0.226,-3.320,0.360,3.040,-0.223,-0.242,0.973,0.144,0.174,0.224,0.000,0.000,0.841,0.150,2,2,0,2,7,255,1296,250,577,1296
stim,1872,1872,0,127011.369,0.543,0.068,0.080,-0.833,3404,573,1145,3611,305,1753,508,1043,42,0.000,4,1,2.823,0.277,-2.140,0.540,1.760,-0.228,-0.242,0.959,0.216,0.174,0.224,0.000,0.000,0.841,0.150,2,2,0,2,7,255,1296,250,582,1296
stim,1903,1903,0,127016.369,0.543,0.068,0.080,-0.833,3411,572,1128,3626,277,1737,519,1033,42,0.000,4,1,2.642,0.310,-1.840,0.240,1.880,-0.233,-0.239,0.953,0.268,0.156,0.108,0.000,0.000,0.841,0.150,2,2,0,2,7,255,1296,250,587,1296
stim,1903,1903,0,127021.369,0.543,0.068,0.080,-0.833,3409,573,1134,3633,277,1722,519,993,42,0.000,4,1,2.827,0.285,-1.400,-0.420,2.420,-0.228,-0.230,0.953,0.268,0.096,0.054,0.000,0.000,0.841,0.150,2,2,0,2,7,255,1296,250,592,1296
stim,1903,1903,0,127026.369,0.543,0.068,0.080,-0.833,3401,583,1135,3627,302,1723,519,981,42,0.000,4,1,2.011,0.200,-0.540,-0.540,1.860,-0.220,-0.231,0.959,0.176,0.096,0.054,0.000,0.000,0.841,0.150,2,2,0,2,7,255,1296,250,597,1296
stim,1903,1903,0,127031.369,0.543,0.068,0.080,-0.833,3404,586,1147,3628,312,1726,519,973,42,0.000,4,1,1.536,0.235,1.280,-0.480,0.700,-0.220,-0.235,0.962,0.158,0.174,0.066,0.000,0.000,0.841,0.150,2,2,0,2,7,255,1296,250,602,1296
stim,1903,1903,0,127036.369,0.543,0.068,0.080,-0.833,3391,613,1143,3625,279,1717,536,971,42,0.000,4,1,3.097,0.235,3.060,-0.420,-0.220,-0.225,-0.232,0.952,0.158,0.174,0.066,0.000,0.000,0.841,0.150,2,2,0,2,7,255,1296,250,607,1296
stim,1903,1903,0,127041.369,0.543,0.068,0.080,-0.833,3397,633,1135,3621,299,1688,533,921,42,0.000,4,1,3.581,0.200,3.540,-0.540,0.020,-0.233,-0.221,0.939,0.158,0.122,0.010,0.000,0.000,0.841,0.150,2,2,0,2,7,255,1296,250,612,1296
stim,1968,1968,0,127046.369,0.543,0.068,0.080,-0.833,3400,635,1142,3628,294,1657,532,907,42,0.000,4,1,3.427,0.148,3.100,-0.860,1.180,-0.231,-0.207,0.936,0.148,-0.010,-0.116,0.000,0.000,0.841,0.150,2,2,0,2,7,255,1296,250,617,1296
stim,1968,1968,0,127051.369,0.543,0.068,0.080,-0.833,3399,617,1139,3625,287,1648,532,907,42,0.000,4,1,3.392,0.030,2.720,-1.040,1.740,-0.225,-0.199,0.944,0.028,-0.012,-0.128,0.000,0.000,0.841,0.150,2,2,0,2,7,255,1296,250,622,1296
stim,1968,1968,0,127056.369,0.543,0.067,0.080,-0.833,3389,622,1095,3635,284,1610,536,907,42,0.000,4,1,3.528,0.079,3.220,-1.040,1.000,-0.221,-0.200,0.957,-0.078,-0.012,-0.128,0.000,0.000,0.841,0.150,2,2,0,2,7,255,1296,250,627,1296
stim,1968,1968,0,127061.369,0.543,0.067,0.079,-0.833,3429,611,1093,3636,283,1659,540,915,42,0.000,4,1,4.252,0.083,4.180,-0.780,-0.040,-0.224,-0.201,0.957,-0.082,0.014,-0.022,0.000,0.000,0.841,0.150,2,2,0,2,7,255,1296,250,632,1296
stim,1968,1968,0,127066.371,0.543,0.067,0.079,-0.833,3389,603,1075,3633,276,1648,551,958,42,0.000,4,1,4.369,0.083,4.300,-0.720,-0.280,-0.234,-0.202,0.948,-0.082,0.014,-0.022,0.000,0.000,0.841,0.150,2,2,0,2,7,255,1296,250,637,1296
stim,1968,1968,0,127071.369,0.543,0.067,0.079,-0.833,3381,605,1099,3636,281,1633,555,956,42,0.000,4,1,3.446,0.090,3.240,-0.840,0.820,-0.238,-0.194,0.943,-0.044,-0.078,-0.068,0.000,0.000,0.841,0.150,2,2,0,2,7,255,1296,250,642,1296
stim,1968,1968,0,127076.369,0.543,0.066,0.079,-0.833,3379,605,1101,3637,285,1641,551,927,42,0.000,4,1,3.155,0.111,2.200,-0.840,2.100,-0.231,-0.188,0.945,-0.044,-0.102,-0.120,0.000,0.000,0.841,0.150,2,2,0,2,7,255,1296,250,647,1296
stim,1968,1968,0,127081.369,0.543,0.066,0.078,-0.833,3383,601,1114,3623,273,1582,539,936,42,0.000,4,1,3.308,0.157,1.900,-0.600,2.640,-0.223,-0.185,0.950,-0.120,-0.102,-0.120,0.000,0.000,0.841,0.150,2,2,0,2,7,255,1296,250,652,1296
stim,1969,1969,0,127086.369,0.543,0.066,0.078,-0.833,3385,571,1115,3627,273,1577,549,949,42,0.000,4,1,3.583,0.162,2.560,-0.480,2.460,-0.217,-0.189,0.950,-0.158,-0.034,-0.106,0.000,0.000,0.841,0.150,2,2,0,2,7,255,1296,250,657,1296
stim,1969,1969,0,127091.369,0.543,0.066,0.078,-0.833,3383,567,1123,3625,267,1587,548,945,42,0.000,4,1,3.859,0.160,3.420,-0.160,1.780,-0.218,-0.191,0.945,-0.158,0.028,-0.106,0.000,0.000,0.841,0.150,2,2,0,2,7,255,1296,250,662,1296
stim,1971,1971,0,127096.369,0.543,0.066,0.078,-0.833,3378,566,1127,3633,267,1586,549,948,42,0.000,4,1,3.844,0.117,3.580,-0.040,1.400,-0.221,-0.195,0.940,-0.114,0.028,-0.148,0.000,0.000,0.841,0.150,2,2,0,2,7,255,1296,250,667,1296
stim,1971,1971,0,127101.369,0.543,0.065,0.078,-0.833,3383,563,1125,3623,275,1567,540,942,42,0.000,4,1,3.938,0.055,3.580,0.020,1.640,-0.223,-0.198,0.940,-0.054,0.010,-0.164,0.000,0.000,0.841,0.150,2,2,0,2,7,255,1296,250,672,1296
stim,1971,1971,0,127106.369,0.543,0.065,0.077,-0.833,3385,568,1123,3623,271,1585,537,935,42,0.000,4,1,5.293,0.014,4.000,1.060,3.300,-0.235,-0.204,0.947,-0.014,0.002,-0.164,0.000,0.000,0.841,0.150,2,2,0,2,7,255,1296,250,677,1296
stim,1971,1971,0,127111.369,0.543,0.065,0.077,-0.834,3383,589,1109,3624,275,1591,556,943,42,0.000,4,1,5.989,0.020,4.540,-0.220,3.900,-0.224,-0.191,0.950,-0.014,-0.014,-0.080,0.000,0.000,0.841,0.150,2,2,0,2,7,255,1296,250,682,1296
stim,1999,1999,0,127116.369,0.543,0.065,0.077,-0.834,3397,593,1111,3623,271,1577,555,949,42,0.000,4,1,6.446,0.062,5.320,0.020,3.640,-0.215,-0.210,0.950,0.060,-0.014,-0.064,0.000,0.000,0.841,0.150,2,2,0,2,7,255,1296,250,687,1296
stim,1999,1999,0,127121.369,0.543,0.065,0.077,-0.834,3397,603,1112,3557,269,1564,555,952,42,0.000,4,1,6.298,0.094,5.860,0.200,2.300,-0.215,-0.201,0.943,0.002,0.094,-0.080,0.000,0.000,0.841,0.150,2,2,0,2,7,255,1296,250,692,1296
stim,1999,1999,0,127126.369,0.543,0.064,0.076,-0.834,3380,599,1121,3635,271,1516,555,953,42,0.000,4,1,6.030,0.095,5.800,0.320,1.620,-0.222,-0.199,0.942,0.014,0.094,-0.140,0.000,0.000,0.841,0.150,2,2,0,2,7,255,1296,250,697,1296
stim,1999,1999,0,127131.369,0.543,0.064,0.076,-0.834,3385,585,1122,3635,269,1557,557,952,42,0.000,4,1,6.118,0.022,5.780,0.320,1.980,-0.228,-0.193,0.943,0.002,0.022,-0.140,0.000,0.000,0.841,0.150,2,2,0,2,7,255,1296,250,702,1296
stim,2064,2064,0,127136.369,0.543,0.064,0.076,-0.834,3389,543,1129,3635,272,1557,555,949,42,0.000,4,1,6.612,0.047,5.900,0.380,2.960,-0.228,-0.187,0.946,-0.016,-0.044,-0.126,0.000,0.000,0.841,0.150,2,2,0,2,7,255,1296,250,707,1296
stim,2064,2064,0,127141.369,0.543,0.064,0.075,-0.834,3389,549,1147,3630,271,1579,557,947,42,0.000,4,1,7.176,0.073,6.180,0.440,3.620,-0.226,-0.189,0.951,-0.058,-0.044,-0.110,0.000,0.000,0.841,0.150,2,2,0,2,7,255,1296,250,712,1296
stim,2064,2064,0,127146.369,0.543,0.063,0.075,-0.834,3387,544,1160,3616,274,1595,555,944,42,0.000,4,1,7.487,0.066,6.600,0.620,3.480,-0.226,-0.188,0.949,-0.060,-0.028,-0.088,0.000,0.000,0.841,0.150,2,2,0,2,7,255,1296,250,717,1296
stim,2064,2064,0,127151.369,0.543,0.063,0.075,-0.834,3389,532,1163,3615,275,1597,554,937,42,0.000,4,1,7.312,0.064,6.520,0.920,3.180,-0.228,-0.186,0.947,-0.058,-0.028,-0.088,0.000,0.000,0.841,0.150,2,2,0,2,7,255,1296,250,722,1296
stim,2064,2064,0,127156.369,0.543,0.063,0.074,-0.834,3399,558,1180,3613,275,1605,549,941,42,0.000,4,1,6.787,0.078,5.780,0.740,3.480,-0.230,-0.177,0.946,-0.060,-0.050,-0.100,0.000,0.000,0.841,0.150,2,2,0,2,7,255,1296,250,727,1296
stim,2064,2064,0,127161.369,0.543,0.063,0.074,-0.834,3403,537,1164,3627,277,1625,551,941,42,0.000,4,1,6.236,0.127,4.920,0.920,3.720,-0.230,-0.179,0.951,-0.094,-0.086,-0.100,0.000,0.000,0.841,0.150,2,2,0,2,7,255,1296,250,732,1296
stim,2064,2064,0,127166.370,0.543,0.062,0.074,-0.834,3411,581,1158,3631,275,1640,568,939,42,0.000,4,1,5.992,0.136,4.420,0.920,3.940,-0.231,-0.178,0.953,-0.104,-0.088,-0.072,0.000,0.000,0.841,0.150,2,2,0,2,7,255,1296,250,737,1296
stim,2064,2064,0,127171.369,0.543,0.062,0.073,-0.834,3400,565,1149,3637,276,1572,557,934,42,0.000,4,1,5.707,0.135,3.980,1.100,3.940,-0.230,-0.177,0.955,-0.104,-0.086,-0.050,0.000,0.000,0.841,0.150,2,2,0,2,7,255,1296,250,742,1296
stim,2064,2064,0,127176.369,0.543,0.062,0.073,-0.834,3411,616,1147,3637,277,1596,547,935,42,0.000,4,1,5.359,0.138,3.300,1.160,4.060,-0.233,-0.172,0.952,-0.106,-0.088,-0.050,0.000,0.000,0.841,0.150,2,2,0,2,7,255,1296,250,747,1296
stim,2064,2064,0,127181.369,0.543,0.062,0.073,-0.835,3403,644,1152,3627,281,1590,555,939,42,0.000,4,1,5.260,0.142,2.440,1.280,4.480,-0.231,-0.174,0.951,-0.106,-0.094,-0.068,0.000,0.000,0.841,0.150,2,2,0,2,7,255,1296,250,752,1296
stim,2064,2064,0,127186.369,0.543,0.062,0.072,-0.835,3409,633,1133,3609,285,1573,559,941,42,0.000,4,1,5.096,0.140,1.520,1.460,4.640,-0.232,-0.175,0.951,-0.104,-0.094,-0.074,0.000,0.000,0.841,0.150,2,2,0,2,7,255,1296,250,757,1296
stim,2064,2064,0,127191.369,0.542,0.062,0.072,-0.835,3401,629,1129,3616,279,1554,551,921,42,0.000,4,1,5.293,0.136,0.840,1.520,5.000,-0.232,-0.174,0.952,-0.100,-0.092,-0.074,0.000,0.000,0.841,0.150,2,2,0,2,7,255,1296,250,762,1296
stim,2064,2064,0,127196.369,0.542,0.062,0.072,-0.835,3403,622,1151,3629,282,1519,554,911,42,0.000,4,1,5.550,0.127,0.180,1.820,5.240,-0.232,-0.182,0.955,-0.092,-0.088,-0.060,0.000,0.000,0.841,0.150,2,2,0,2,7,255,1296,250,767,1296
stim,2064,2064,0,127201.369,0.542,0.062,0.072,-0.835,3407,611,1155,3623,281,1592,557,916,42,0.000,4,1,5.757,0.058,0.040,1.940,5.420,-0.233,-0.185,0.957,-0.032,-0.048,-0.018,0.000,0.000,0.841,0.150,2,2,0,2,7,255,1296,250,772,1296
stim,2097,2097,0,127206.369,0.542,0.062,0.071,-0.835,3407,601,1148,3635,281,1620,565,911,42,0.000,4,1,5.875,0.040,-0.200,2.000,5.520,-0.233,-0.191,0.956,-0.004,-0.040,0.004,0.000,0.000,0.841,0.150,2,2,0,2,7,255,1296,250,777,1296
stim,2097,2097,0,127211.369,0.542,0.062,0.071,-0.835,3373,600,1150,3625,285,1619,579,916,42,0.000,4,1,7.500,0.069,-0.140,3.160,6.800,-0.245,-0.192,0.954,0.056,-0.040,0.008,0.000,0.000,0.841,0.150,2,2,0,2,7,255,1296,250,782,1296
stim,2097,2097,0,127216.369,0.542,0.062,0.071,-0.835,3407,613,1163,3635,279,1623,571,915,42,0.000,4,1,8.072,0.109,-0.260,3.640,7.200,-0.245,-0.192,0.969,0.064,-0.088,0.018,0.000,0.000,0.841,0.150,2,2,0,2,7,255,1296,250,787,1296
stim,2097,2097,0,127221.369,0.541,0.062,0.071,-0.836,3413,630,1160,3625,279,1620,556,921,42,0.000,4,1,8.126,0.139,0.360,1.120,8.040,-0.222,-0.208,0.967,0.108,-0.088,0.120,0.000,0.000,0.841,0.150,2,2,0,2,7,255,1296,250,792,1296
stim,2147,2147,0,127226.369,0.541,0.062,0.071,-0.836,3411,609,1168,3627,280,1608,554,918,42,0.000,4,1,5.670,0.214,0.600,1.620,5.400,-0.220,-0.207,0.958,0.124,0.174,0.120,0.000,0.000,0.841,0.150,2,2,0,2,7,255,1296,250,797,1296
stim,2147,2147,0,127231.369,0.541,0.062,0.071,-0.836,3419,611,1173,3624,275,1593,553,920,42,0.000,4,1,4.596,0.220,0.780,2.640,3.680,-0.238,-0.206,0.963,0.134,0.174,0.114,0.000,0.000,0.841,0.150,2,2,0,2,7,255,1296,250,802,1296
stim,2147,2147,0,127236.369,0.541,0.062,0.071,-0.836,3406,629,1172,3639,275,1613,552,921,42,0.000,4,1,4.037,0.162,1.380,1.600,3.440,-0.240,-0.207,0.972,0.160,0.026,0.114,0.000,0.000,0.841,0.150,2,2,0,2,7,255,1296,250,807,1296
stim,2147,2147,0,127241.369,0.541,0.062,0.071,-0.836,3413,627,1182,3627,279,1578,553,923,42,0.000,4,1,4.788,0.176,2.360,0.740,4.100,-0.236,-0.214,0.968,0.174,0.026,0.170,0.000,0.000,0.841,0.150,2,2,0,2,7,255,1296,250,812,1296
stim,2147,2147,0,127246.369,0.541,0.062,0.071,-0.836,3413,619,1181,3631,278,1578,553,923,42,0.000,4,1,5.439,0.215,3.580,1.420,3.840,-0.237,-0.211,0.966,0.206,0.062,0.170,0.000,0.000,0.841,0.150,2,2,0,2,7,255,1296,250,817,1296
stim,2147,2147,0,127251.369,0.540,0.062,0.070,-0.836,3421,613,1181,3597,283,1559,564,924,42,0.000,4,1,6.080,0.215,4.540,1.720,3.660,-0.242,-0.210,0.973,0.206,0.062,0.170,0.000,0.000,0.841,0.150,2,2,0,2,7,255,1296,250,822,1296
stim,2159,2159,0,127256.369,0.540,0.062,0.070,-0.836,3411,617,1197,3635,280,1539,572,929,42,0.000,4,1,7.023,0.215,6.120,0.560,3.400,-0.230,-0.215,0.971,0.206,0.062,0.174,0.000,0.000,0.841,0.150,2,2,0,2,7,255,1296,250,827,1296
stim,2159,2159,0,127261.369,0.540,0.062,0.070,-0.836,3405,636,1181,3631,281,1545,559,940,42,0.000,4,1,7.649,0.253,7.340,0.620,2.060,-0.229,-0.217,0.963,0.208,0.144,0.174,0.000,0.000,0.841,0.150,2,2,0,2,7,255,1296,250,832,1296
stim,2159,2159,0,127266.370,0.540,0.062,0.070,-0.836,3412,648,1197,3628,281,1597,571,941,42,0.000,4,1,8.579,0.271,8.480,0.800,1.020,-0.238,-0.215,0.972,0.230,0.144,0.174,0.000,0.000,0.841,0.150,2,2,0,2,7,255,1296,250,837,1296
stim,2159,2159,0,127271.369,0.540,0.061,0.070,-0.836,3421,627,1197,3631,280,1578,569,951,42,0.000,4,1,9.853,0.244,9.800,-0.800,0.640,-0.236,-0.208,0.971,0.230,0.080,0.174,0.000,0.000,0.841,0.150,2,2,0,2,7,255,1296,250,842,1296
stim,2159,2159,0,127276.369,0.541,0.061,0.069,-0.836,3417,624,1194,3640,282,1571,563,947,42,0.000,4,1,11.130,0.241,10.880,-1.940,1.320,-0.247,-0.207,0.959,0.230,0.072,0.174,0.000,0.000,0.841,0.150,2,2,0,2,7,255,1296,250,847,1296
stim,2159,2159,0,127281.369,0.541,0.061,0.069,-0.836,3413,649,1195,3629,283,1568,569,937,42,0.000,4,1,11.617,0.176,11.480,-0.960,1.500,-0.237,-0.197,0.973,0.174,0.028,0.170,0.000,0.000,0.841,0.150,2,2,0,2,7,255,1296,250,852,1296
stim,2159,2159,0,127286.369,0.541,0.061,0.069,-0.836,3409,649,1199,3628,282,1535,571,924,42,0.000,4,1,13.047,0.176,12.860,-1.820,1.240,-0.232,-0.203,0.958,0.174,0.028,0.086,0.000,0.000,0.841,0.150,2,2,0,2,7,255,1296,250,857,1296
stim,2159,2159,0,127291.369,0.541,0.060,0.068,-0.836,3404,665,1182,3633,285,1529,581,935,42,0.000,4,1,14.248,0.114,14.240,-0.420,-0.220,-0.224,-0.197,0.978,0.090,0.070,0.170,0.000,0.000,0.841,0.150,2,2,0,2,7,255,1296,250,862,1296
stim,2175,2175,0,127296.369,0.541,0.060,0.068,-0.836,3405,659,1181,3641,279,1517,565,931,42,0.000,4,1,15.496,0.091,15.180,-2.920,-1.080,-0.230,-0.186,0.951,0.058,0.070,0.024,0.000,0.000,0.841,0.150,2,2,0,2,7,255,1296,250,867,1296
stim,2175,2175,0,127301.369,0.541,0.059,0.067,-0.836,3417,662,1181,3629,275,1503,565,925,42,0.000,4,1,15.485,0.082,15.340,-0.220,-2.100,-0.221,-0.176,0.956,0.048,0.066,-0.064,0.000,0.000,0.841,0.150,2,2,0,2,7,255,1296,250,872,1296
stim,2175,2175,0,127306.369,0.541,0.059,0.067,-0.836,3404,671,1184,3628,275,1481,585,928,42,0.000,4,1,15.673,0.057,15.360,-1.140,-2.900,-0.224,-0.177,0.958,-0.034,0.046,-0.064,0.000,0.000,0.841,0.150,2,2,0,2,7,255,1296,250,877,1296
stim,2175,2175,0,127311.369,0.542,0.058,0.066,-0.836,3406,693,1189,3631,275,1447,581,909,42,0.000,4,1,15.997,0.058,15.580,-2.180,-2.900,-0.231,-0.173,0.960,-0.036,0.046,-0.042,0.000,0.000,0.841,0.150,2,2,0,2,7,255,1296,250,882,1296
stim,2240,2240,0,127316.369,0.542,0.058,0.065,-0.836,3407,663,1183,3635,279,1453,579,915,42,0.000,4,1,16.356,0.042,16.100,-0.160,-2.880,-0.228,-0.166,0.957,-0.036,-0.022,-0.042,0.000,0.000,0.841,0.150,2,2,0,2,7,255,1296,250,887,1296
stim,2240,2240,0,127321.369,0.542,0.057,0.065,-0.836,3407,659,1183,3635,282,1421,583,904,42,0.000,4,1,16.916,0.083,16.620,-0.760,-3.060,-0.225,-0.166,0.958,-0.080,-0.022,-0.048,0.000,0.000,0.841,0.150,2,2,0,2,7,255,1296,250,892,1296
stim,2240,2240,0,127326.369,0.543,0.057,0.064,-0.836,3404,647,1184,3637,285,1428,587,913,42,0.000,4,1,17.569,0.080,17.180,-0.340,-3.660,-0.223,-0.170,0.959,-0.080,0.008,-0.048,0.000,0.000,0.841,0.150,2,2,0,2,7,255,1296,250,897,1296
stim,2240,2240,0,127331.369,0.543,0.056,0.064,-0.835,3406,624,1204,3640,277,1422,603,892,42,0.000,4,1,17.893,0.044,17.400,-0.520,-4.140,-0.226,-0.169,0.956,-0.040,0.018,-0.048,0.000,0.000,0.841,0.150,2,2,0,2,7,255,1296,250,902,1296
stim,2240,2240,0,127336.369,0.543,0.056,0.063,-0.835,3416,605,1209,3639,278,1453,599,903,42,0.000,4,1,17.825,0.044,17.240,-0.520,-4.500,-0.228,-0.160,0.953,-0.040,0.018,-0.064,0.000,0.000,0.841,0.150,2,2,0,2,7,255,1296,250,907,1296
stim,2240,2240,0,127341.369,0.544,0.055,0.062,-0.835,3406,601,1197,3629,274,1451,601,888,42,0.000,4,1,17.688,0.019,17.080,-0.580,-4.560,-0.228,-0.165,0.957,-0.018,-0.006,-0.064,0.000,0.000,0.841,0.150,2,2,0,2,7,255,1296,250,912,1296
stim,2240,2240,0,127346.369,0.544,0.055,0.062,-0.835,3405,593,1208,3643,276,1455,601,893,42,0.000,4,1,17.341,0.035,16.740,-0.640,-4.480,-0.231,-0.165,0.956,-0.018,-0.030,-0.060,0.000,0.000,0.841,0.150,2,2,0,2,7,255,1296,250,917,1296
stim,2240,2240,0,127351.369,0.544,0.054,0.061,-0.835,3409,597,1221,3639,271,1436,603,879,42,0.000,4,1,16.988,0.035,16.280,-0.340,-4.840,-0.229,-0.152,0.957,-0.018,-0.030,-0.060,0.000,0.000,0.841,0.150,2,2,0,2,7,255,1296,250,922,1296
stim,2241,2241,0,127356.369,0.545,0.054,0.060,-0.835,3403,599,1175,3627,269,1457,591,899,42,0.000,4,1,16.507,0.081,15.580,-0.400,-5.440,-0.231,-0.155,0.962,-0.058,-0.056,-0.056,0.000,0.000,0.841,0.150,2,2,0,2,7,255,1296,250,927,1296
stim,2241,2241,0,127361.369,0.545,0.053,0.060,-0.834,3411,627,1180,3631,274,1464,591,891,42,0.000,4,1,16.134,0.081,14.820,-0.700,-6.340,-0.235,-0.161,0.973,-0.058,-0.056,-0.016,0.000,0.000,0.841,0.150,2,2,0,2,7,255,1296,250,932,1296
stim,2271,2271,0,127366.369,0.546,0.053,0.059,-0.834,3403,619,1180,3640,267,1465,589,895,42,0.000,4,1,15.370,0.062,13.500,-0.640,-7.320,-0.240,-0.156,0.977,-0.026,-0.056,0.104,0.000,0.000,0.841,0.150,2,2,0,2,7,255,1296,250,937,1296
stim,2271,2271,0,127371.369,0.546,0.053,0.059,-0.834,3413,619,1179,3623,266,1415,597,887,42,0.000,4,1,14.907,0.068,12.560,-0.880,-7.980,-0.241,-0.162,0.984,-0.002,-0.068,0.142,0.000,0.000,0.841,0.150,2,2,0,2,7,255,1296,250,942,1296
stim,2271,2271,0,127376.369,0.546,0.052,0.059,-0.834,3396,589,1195,3643,265,1402,597,874,42,0.000,4,1,15.012,0.070,12.420,-0.940,-8.380,-0.243,-0.174,0.986,0.018,-0.068,0.220,0.000,0.000,0.841,0.150,2,2,0,2,7,255,1296,250,947,1296
stim,2271,2271,0,127381.369,0.547,0.052,0.058,-0.834,3401,659,1203,3597,266,1375,597,889,42,0.000,4,1,15.782,0.144,13.360,-1.300,-8.300,-0.244,-0.176,0.979,0.138,-0.040,0.220,0.000,0.000,0.841,0.150,2,2,0,2,7,255,1296,250,952,1296
stim,2271,2271,0,127386.369,0.547,0.052,0.058,-0.833,3387,637,1203,3623,297,1389,600,895,42,0.000,4,1,15.851,0.144,13.760,-1.960,-7.620,-0.246,-0.163,0.972,0.138,-0.040,0.204,0.000,0.000,0.841,0.150,2,2,0,2,7,255,1296,250,957,1296
stim,2271,2271,0,127391.369,0.548,0.051,0.057,-0.833,3399,575,1184,3622,307,1387,601,921,42,0.000,4,1,14.629,0.152,12.700,-2.200,-6.920,-0.243,-0.146,0.964,0.096,-0.118,0.112,0.000,0.000,0.841,0.150,2,2,0,2,7,255,1296,250,962,1296
stim,2271,2271,0,127396.369,0.548,0.051,0.057,-0.833,3383,633,1180,3635,291,1368,593,955,42,0.000,4,1,13.236,0.123,10.900,-2.260,-7.160,-0.238,-0.143,0.972,-0.034,-0.118,0.066,0.000,0.000,0.841,0.150,2,2,0,2,7,255,1296,250,967,1296
stim,2271,2271,0,127401.369,0.548,0.050,0.057,-0.833,3382,555,1175,3631,267,1359,594,909,42,0.000,4,1,12.493,0.121,8.620,-2.080,-8.800,-0.229,-0.172,0.988,-0.034,-0.116,0.066,0.000,0.000,0.841,0.150,2,2,0,2,7,255,1296,250,972,1296
stim,2271,2271,0,127406.369,0.549,0.050,0.057,-0.832,3360,565,1157,3627,264,1287,584,948,42,0.000,4,1,14.653,0.149,7.760,-2.380,-12.200,-0.223,-0.211,1.008,0.112,0.098,0.236,0.000,0.000,0.841,0.150,2,2,0,2,7,255,1296,250,977,1296
stim,2271,2271,0,127411.369,0.549,0.050,0.057,-0.832,3346,567,1147,3623,263,1191,593,891,42,0.000,4,1,18.532,0.506,9.080,-2.860,-15.900,-0.229,-0.224,1.014,0.398,0.312,0.468,0.000,0.000,0.841,0.150,2,2,0,2,7,255,1296,250,982,1296
stim,2304,2304,0,127416.369,0.550,0.050,0.057,-0.832,3351,557,1165,3621,269,1193,587,941,42,0.000,4,1,21.164,0.588,10.960,-3.520,-17.760,-0.237,-0.219,1.011,0.498,0.312,0.528,0.000,0.000,0.841,0.150,2,2,0,2,7,255,1296,250,987,1296
stim,2304,2304,0,127421.369,0.551,0.049,0.057,-0.831,3341,505,1161,3602,271,1133,581,803,42,0.000,4,1,22.839,0.540,13.860,-4.200,-17.660,-0.241,-0.209,0.998,0.498,0.210,0.528,0.000,0.000,0.841,0.150,2,2,0,2,7,255,1296,250,992,1296
stim,2304,2304,0,127426.369,0.552,0.049,0.057,-0.831,3321,505,1117,3604,275,1081,589,4095,42,0.000,4,1,23.342,0.470,15.720,-4.980,-16.520,-0.237,-0.185,0.979,0.456,0.114,0.398,0.000,0.000,0.841,0.150,2,2,0,2,7,255,1296,250,997,1296
stim,2304,2304,0,127431.369,0.552,0.048,0.057,-0.830,3310,537,1118,3596,261,1041,582,4095,42,0.000,4,1,22.972,0.283,16.680,-5.880,-14.660,-0.226,-0.165,0.961,0.282,0.022,0.172,0.000,0.000,0.841,0.150,2,2,0,2,7,255,1296,250,1002,1296
stim,2367,2367,0,127436.369,0.553,0.048,0.057,-0.830,3299,445,1120,3604,277,1088,579,4095,42,0.000,4,1,22.901,0.114,18.360,-4.520,-12.920,-0.211,-0.162,0.935,0.112,0.022,-0.056,0.000,0.000,0.841,0.150,2,2,0,2,7,255,1296,250,1007,1296
stim,2367,2367,0,127441.369,0.553,0.047,0.056,-0.830,3289,327,1124,3599,281,979,571,4095,42,0.000,4,1,26.736,0.113,24.420,2.560,-10.580,-0.253,-0.188,1.004,0.112,0.018,-0.056,0.000,0.000,0.841,0.150,2,2,0,2,7,255,1296,250,1012,1296
stim,2367,2367,0,127446.369,0.554,0.047,0.055,-0.829,3281,227,1071,3609,277,943,563,4095,42,0.000,4,1,27.878,0.130,26.440,-3.800,-7.980,-0.231,-0.102,0.927,0.108,-0.072,-0.334,0.000,0.000,0.841,0.150,2,2,0,2,7,255,1296,250,1017,1296
stim,2367,2367,0,127451.369,0.554,0.046,0.054,-0.829,3281,179,1097,3594,275,1030,558,4095,42,0.000,4,1,25.212,0.415,24.620,0.360,-5.420,-0.228,-0.095,0.930,-0.306,-0.280,-0.436,0.000,0.000,0.841,0.150,2,2,0,2,7,255,1296,250,1022,1296
stim,2367,2367,0,127456.369,0.555,0.045,0.053,-0.829,3257,59,1087,3599,269,1005,552,4095,42,0.000,4,1,19.451,0.467,19.440,0.420,-0.520,-0.246,-0.064,0.901,-0.356,-0.302,-0.452,0.000,0.000,0.841,0.150,2,2,0,2,7,255,1296,250,1027,1296
stim,2367,2367,0,127461.369,0.555,0.045,0.052,-0.829,3245,187,1017,3593,275,1015,541,4095,42,0.000,4,1,10.627,0.453,9.940,-3.600,1.080,-0.199,-0.138,0.925,-0.356,-0.280,-0.476,0.000,0.000,0.841,0.150,2,2,0,2,7,255,1296,250,1032,1296
stim,2367,2367,0,127466.369,0.555,0.044,0.053,-0.829,3242,189,1033,3593,270,1004,521,4095,42,0.000,4,1,11.172,0.141,9.680,-1.400,-5.400,-0.154,-0.202,0.964,-0.018,0.140,-0.476,0.000,0.000,0.841,0.150,2,2,0,2,7,255,1296,250,1037,1296
stim,2367,2367,0,127471.369,0.555,0.044,0.052,-0.829,3229,160,1013,3575,267,957,506,4095,42,0.000,4,1,12.574,0.141,8.260,-2.120,-9.240,-0.237,-0.049,0.963,-0.018,0.140,-0.150,0.000,0.000,0.841,0.150,2,2,0,2,7,255,1296,250,1042,1296
stim,2367,2367,1,127476.369,0.556,0.043,0.052,-0.829,3223,161,972,3588,265,971,507,4095,42,0.000,4,1,12.505,0.086,7.440,-5.840,-8.180,-0.212,-0.136,0.970,-0.050,0.070,-0.114,0.000,0.000,0.841,0.150,2,2,1,2,7,255,1296,250,1047,1296
stim,2367,2367,1,127481.369,0.556,0.043,0.052,-0.828,3205,16,953,3592,265,933,501,4095,42,0.000,4,1,15.891,0.086,11.940,1.180,-10.420,-0.216,-0.150,1.001,-0.050,0.070,-0.022,0.000,0.000,0.841,0.150,2,2,1,2,7,255,1296,250,1052,1296
stim,2367,2367,1,127486.369,0.557,0.042,0.051,-0.828,3193,76,859,3572,266,972,495,4095,42,0.000,4,1,18.368,0.086,15.220,-2.480,-9.980,-0.221,-0.125,0.988,-0.050,0.070,0.150,0.000,0.000,0.841,0.150,2,2,1,2,7,255,1296,250,1057,1296
stim,2367,2367,1,127491.369,0.557,0.042,0.051,-0.828,3177,87,839,3575,275,971,491,4095,42,0.000,4,1,19.030,0.031,16.480,-2.780,-9.100,-0.221,-0.132,0.976,-0.030,-0.008,0.150,0.000,0.000,0.841,0.150,2,2,1,2,7,255,1296,250,1062,1296
stim,2367,2367,1,127496.369,0.558,0.041,0.050,-0.827,3149,81,839,3576,271,893,495,4095,42,0.000,4,1,20.562,0.051,17.960,-1.620,-9.880,-0.214,-0.129,0.969,-0.050,-0.008,0.042,0.000,0.000,0.841,0.150,2,2,1,2,7,255,1296,250,1067,1296
stim,2367,2367,1,127501.369,0.558,0.041,0.050,-0.827,3145,83,826,3579,259,931,485,4095,42,0.000,4,1,20.579,0.060,17.440,-1.360,-10.840,-0.208,-0.125,0.968,-0.050,0.034,-0.036,0.000,0.000,0.841,0.150,2,2,1,2,7,255,1296,250,1072,1296
stim,2383,2383,1,127506.369,0.559,0.040,0.049,-0.827,3145,76,814,3560,235,877,487,4095,42,0.000,4,1,21.309,0.084,16.620,-1.420,-13.260,-0.203,-0.128,0.962,-0.050,0.068,-0.064,0.000,0.000,0.841,0.150,2,2,1,2,7,255,1296,250,1077,1296
stim,2383,2383,1,127511.369,0.560,0.040,0.049,-0.826,3113,0,791,3576,243,971,504,4095,42,0.000,4,1,22.940,0.126,16.220,-0.260,-16.220,-0.206,-0.134,0.967,-0.050,0.116,-0.066,0.000,0.000,0.841,0.150,2,2,1,2,7,255,1296,250,1082,1296
stim,2383,2383,1,127516.369,0.561,0.039,0.048,-0.826,3089,0,839,3560,233,896,488,4095,42,0.000,4,1,24.618,0.116,16.300,0.580,-18.440,-0.216,-0.130,0.977,0.004,0.116,-0.066,0.000,0.000,0.841,0.150,2,2,1,2,7,255,1296,250,1087,1296
stim,2383,2383,1,127521.369,0.561,0.039,0.048,-0.825,3079,0,808,3560,233,847,478,4095,42,0.000,4,1,25.402,0.036,17.180,0.640,-18.700,-0.226,-0.130,0.975,0.016,0.032,0.042,0.000,0.000,0.841,0.150,2,2,1,2,7,255,1296,250,1092,1296
stim,2447,2447,1,127526.369,0.562,0.039,0.047,-0.825,3034,0,814,3558,266,811,469,4095,42,0.000,4,1,25.732,0.077,18.740,2.000,-17.520,-0.236,-0.133,0.976,0.046,-0.062,0.048,0.000,0.000,0.841,0.150,2,2,1,2,7,255,1296,250,1097,1296
stim,2447,2447,1,127531.369,0.563,0.038,0.047,-0.824,3025,0,791,3551,271,825,439,4095,42,0.000,4,1,26.372,0.130,20.100,3.640,-16.680,-0.236,-0.151,0.990,0.114,-0.062,0.082,0.000,0.000,0.841,0.150,2,2,1,2,7,255,1296,250,1102,1296
stim,2447,2447,1,127536.369,0.564,0.038,0.046,-0.824,2976,0,704,3548,283,845,413,4095,42,0.000,4,1,26.708,0.264,21.040,3.080,-16.160,-0.215,-0.165,0.982,0.260,-0.044,0.134,0.000,0.000,0.841,0.150,2,2,1,2,7,255,1296,250,1107,1296
stim,2447,2447,1,127541.369,0.564,0.038,0.046,-0.823,2941,0,683,3533,275,851,391,4095,42,0.000,4,1,26.793,0.391,20.380,1.980,-17.280,-0.221,-0.185,0.975,0.344,0.186,0.134,0.000,0.000,0.841,0.150,2,2,1,2,7,255,1296,250,1112,1296
stim,2447,2447,1,127546.369,0.565,0.037,0.046,-0.823,2910,0,677,3511,264,785,396,4095,42,0.000,4,1,28.122,0.392,19.000,1.480,-20.680,-0.210,-0.162,0.962,0.344,0.188,0.100,0.000,0.000,0.841,0.150,2,2,1,2,7,255,1296,250,1117,1296
stim,2447,2447,1,127551.369,0.566,0.037,0.045,-0.822,2871,0,674,3495,267,788,393,4095,42,0.000,4,1,27.629,0.440,18.720,3.120,-20.080,-0.241,-0.158,0.972,0.398,0.188,0.078,0.000,0.000,0.841,0.150,2,2,1,2,7,255,1296,250,1122,1296
stim,2447,2447,1,127556.369,0.567,0.037,0.045,-0.822,2821,0,640,3502,263,723,391,4095,42,0.000,4,1,28.682,0.346,17.460,2.080,-22.660,-0.215,-0.131,0.961,0.344,0.038,-0.076,0.000,0.000,0.841,0.150,2,2,1,2,7,255,1296,250,1127,1296
stim,2447,2447,1,127561.369,0.568,0.037,0.044,-0.821,2747,0,661,3472,265,732,401,4095,42,0.000,4,1,25.579,0.407,15.900,3.660,-19.700,-0.267,-0.165,0.974,0.398,-0.086,0.078,0.000,0.000,0.841,0.150,2,2,1,2,7,255,1296,250,1132,1296
stim,2447,2447,1,127566.369,0.569,0.037,0.044,-0.821,2679,0,664,3440,227,688,375,4095,42,0.000,4,1,24.501,0.104,16.980,3.040,-17.400,-0.208,-0.096,0.935,0.096,-0.040,-0.112,0.000,0.000,0.841,0.150,2,2,1,2,7,255,1296,250,1137,1296
stim,2447,2447,1,127571.369,0.569,0.037,0.043,-0.820,2591,0,679,3424,222,693,371,4095,42,0.000,4,1,23.803,0.402,10.160,2.500,-21.380,-0.255,-0.136,0.956,0.290,-0.278,-0.064,0.000,0.000,0.841,0.150,2,2,1,2,7,255,1296,250,1142,1296
stim,2447,2447,1,127576.369,0.570,0.037,0.043,-0.820,2503,0,671,3405,192,637,359,4095,42,0.000,4,1,12.264,0.381,8.620,1.580,-8.580,-0.270,-0.125,0.949,0.250,-0.288,-0.112,0.000,0.000,0.841,0.150,2,2,1,2,7,255,1296,250,1147,1296
stim,2447,2447,1,127581.369,0.571,0.036,0.042,-0.819,2427,0,588,3380,197,547,373,4021,42,0.000,4,1,17.784,0.452,4.760,-2.580,-16.940,-0.195,0.037,0.922,0.250,-0.376,-0.112,0.000,0.000,0.841,0.150,2,2,1,2,7,255,1296,250,1152,1296
stim,2447,2447,1,127586.369,0.571,0.037,0.042,-0.819,2341,0,590,3360,205,595,344,3733,42,0.000,4,1,10.316,0.520,-5.200,-3.240,-8.300,-0.363,-0.146,0.981,0.250,-0.456,-0.112,0.000,0.000,0.841,0.150,2,2,1,2,7,255,1296,250,1157,1296
stim,2447,2447,1,127591.369,0.571,0.037,0.042,-0.819,2256,0,571,3355,173,381,340,3743,42,0.000,4,1,7.608,0.622,-2.440,-1.540,7.040,-0.284,-0.129,0.955,0.326,-0.530,-0.012,0.000,0.000,0.841,0.150,2,2,1,2,7,255,1296,250,1162,1296
stim,2479,2479,1,127596.369,0.571,0.037,0.042,-0.819,2175,0,553,3327,155,281,329,3693,42,0.000,4,1,13.502,0.622,-6.840,-9.840,-6.220,-0.247,-0.068,0.986,0.326,-0.530,0.130,0.000,0.000,0.841,0.150,2,2,1,2,7,255,1296,250,1167,1296
stim,2479,2479,1,127601.369,0.572,0.037,0.044,-0.819,2147,0,525,3327,134,291,333,3733,42,0.000,4,1,48.748,0.622,-31.960,-21.160,-30.120,-0.444,-0.279,1.152,0.326,-0.530,0.130,0.000,0.000,0.841,0.150,2,2,1,2,7,255,1296,250,1172,1296
stim,2543,2543,1,127606.369,0.572,0.037,0.046,-0.818,2091,0,529,3303,109,247,365,3463,42,0.000,4,1,46.841,0.738,-30.440,-21.120,-28.660,-0.333,-0.213,1.235,0.650,-0.350,2.356,0.000,0.000,0.841,0.150,2,2,1,2,7,255,1296,250,1177,1296
