condition_phase,condition_phase_elapsed_ms,condition_elapsed_ms,is_stimulation_on,t_ms,L_q0,L_q1,L_q2,L_q3,L_heel1,L_mid1,L_fore1,L_heel2,L_fore3,L_mid2,L_fore4,L_fore2,L_cadence,L_speed,L_steps,L_zupt,L_gyroNorm,L_accH,L_gyro_x,L_gyro_y,L_gyro_z,L_acc_x,L_acc_y,L_acc_z,L_nav_ax,L_nav_ay,L_nav_az,L_stepVel,L_stepVelj,L_stepDispRaw,L_stepDispZUPT,L_gaitEvent,L_motorMode,L_motorActive,L_motorAlignment,L_motorRegionMask,L_motorAmplitude,L_motorIntervalMs,L_motorDurationMs,L_motorPhaseMs,L_motorCycleMs
stim,29,29,0,721393.829,0.979,0.058,-0.063,-0.184,2280,0,141,2408,52,777,19,488,1,0.000,3,0,0.300,0.016,0.280,-0.040,-0.100,-0.143,-0.083,0.985,0.016,0.000,-0.008,0.000,0.000,0.000,0.000,1,2,0,1,7,255,1224,300,0,0
stim,29,29,0,721398.829,0.979,0.058,-0.063,-0.184,2275,0,149,2425,44,766,18,490,1,0.000,3,0,0.686,0.069,0.520,0.080,0.440,-0.140,-0.082,0.986,0.026,0.064,-0.030,0.000,0.000,0.000,0.000,1,2,0,1,7,255,1224,300,0,0
stim,32,32,0,721403.829,0.979,0.058,-0.063,-0.184,2271,0,142,2424,52,781,16,493,1,0.000,3,0,0.764,0.069,0.160,0.260,0.700,-0.149,-0.095,0.989,0.026,0.064,-0.030,0.000,0.000,0.000,0.000,1,2,0,1,7,255,1224,300,0,0
stim,32,32,0,721408.830,0.979,0.058,-0.063,-0.184,2279,0,149,2419,45,785,18,495,1,0.000,3,0,1.092,0.067,-0.820,-0.040,-0.720,-0.164,-0.110,0.992,0.010,-0.066,0.020,0.000,0.000,0.000,0.000,1,2,0,1,7,255,1224,300,0,0
stim,32,32,0,721413.829,0.979,0.058,-0.063,-0.184,2267,0,147,2427,55,777,20,495,1,0.000,3,0,2.295,0.066,-0.580,-0.660,-2.120,-0.148,-0.090,0.989,0.002,-0.066,0.020,0.000,0.000,0.000,0.000,1,2,0,1,7,255,1224,300,0,0
stim,32,32,0,721418.829,0.979,0.058,-0.063,-0.184,2277,0,154,2427,57,779,19,499,1,0.000,3,0,0.905,0.014,0.820,-0.040,0.380,-0.117,-0.057,0.980,0.002,-0.014,0.014,0.000,0.000,0.000,0.000,1,2,0,1,7,255,1224,300,0,0
stim,64,64,0,721423.829,0.979,0.058,-0.063,-0.184,2272,0,154,2422,55,781,19,494,1,0.000,3,0,3.349,0.040,0.580,1.180,3.080,-0.146,-0.084,0.984,0.002,0.040,-0.038,0.000,0.000,0.000,0.000,1,2,0,1,7,255,1224,300,0,0
stim,64,64,0,721428.829,0.979,0.058,-0.063,-0.184,2277,0,153,2413,58,779,21,495,1,0.000,3,0,2.011,0.040,-1.180,-0.160,-1.620,-0.182,-0.130,1.003,0.000,0.040,-0.038,0.000,0.000,0.000,0.000,1,2,0,1,7,255,1224,300,0,0
stim,64,64,0,721433.829,0.979,0.058,-0.063,-0.184,2273,0,147,2415,58,783,17,495,1,0.000,3,0,3.122,0.040,-0.220,-1.620,-2.660,-0.132,-0.079,0.989,0.000,0.040,-0.014,0.000,0.000,0.000,0.000,1,2,0,1,7,255,1224,300,0,0
stim,64,64,0,721438.829,0.979,0.058,-0.063,-0.184,2263,0,155,2427,57,787,17,500,1,0.000,3,0,3.818,0.160,1.140,1.360,3.380,-0.127,-0.063,0.967,0.070,0.144,-0.014,0.000,0.000,0.000,0.000,1,2,0,1,7,255,1224,300,0,0
stim,64,64,0,721443.829,0.979,0.058,-0.063,-0.184,2283,0,155,2413,61,783,21,497,1,0.000,3,0,1.328,0.160,-0.640,0.560,-1.020,-0.170,-0.118,1.007,0.070,0.144,-0.014,0.000,0.000,0.000,0.000,1,2,0,1,7,255,1224,300,0,0
stim,64,64,0,721448.829,0.979,0.058,-0.063,-0.184,2276,0,155,2413,59,773,21,492,1,0.000,3,0,2.715,0.164,-0.580,-2.300,-1.320,-0.134,-0.078,0.988,0.070,0.148,-0.024,0.000,0.000,0.000,0.000,1,2,0,1,7,255,1224,300,0,0
stim,65,65,0,721453.829,0.979,0.058,-0.063,-0.184,2268,0,152,2413,66,775,15,501,1,0.000,3,0,3.405,0.113,1.080,2.400,2.160,-0.155,-0.092,0.967,-0.074,-0.086,-0.024,0.000,0.000,0.000,0.000,1,2,0,1,7,255,1224,300,0,0
stim,65,65,0,721458.829,0.979,0.058,-0.063,-0.184,2259,0,151,2407,59,791,17,499,1,0.000,3,0,3.208,0.082,-0.700,-1.440,-2.780,-0.137,-0.097,1.021,0.082,0.004,-0.024,0.000,0.000,0.000,0.000,1,2,0,1,7,255,1224,300,0,0
stim,83,83,0,721463.829,0.979,0.058,-0.063,-0.184,2271,0,149,2421,61,779,21,490,1,0.000,3,0,3.020,0.074,-0.020,-0.040,3.020,-0.150,-0.071,0.953,-0.074,0.004,-0.184,0.000,0.000,0.000,0.000,1,2,0,1,7,255,1224,300,0,1224
stim,83,83,0,721468.829,0.979,0.058,-0.063,-0.184,2276,0,151,2421,67,776,18,496,1,0.000,3,0,3.488,0.080,0.820,1.540,-3.020,-0.154,-0.119,1.018,0.080,0.004,0.308,0.000,0.000,0.000,0.000,1,2,0,1,7,255,1224,300,0,1224
stim,83,83,0,721473.829,0.979,0.058,-0.063,-0.184,2278,0,150,2411,61,781,19,493,1,0.000,3,0,4.089,0.116,-1.240,-3.160,2.280,-0.126,-0.057,0.971,0.058,0.100,-0.220,0.000,0.000,0.000,0.000,1,2,0,1,7,255,1224,300,0,1224
stim,83,83,0,721478.829,0.979,0.058,-0.063,-0.184,2271,0,153,2407,63,779,18,493,1,0.000,3,0,4.651,0.261,1.440,4.160,-1.500,-0.175,-0.121,0.988,0.058,-0.254,0.072,0.000,0.000,0.000,0.000,1,2,0,1,7,255,1224,300,4,1224
stim,11,11,0,721483.829,0.979,0.058,-0.063,-0.184,2275,0,155,2413,57,776,20,494,1,0.000,3,0,4.901,0.345,-1.380,-4.680,0.460,-0.115,-0.065,1.003,0.058,0.340,0.072,0.000,0.000,0.000,0.000,1,2,0,2,7,255,1020,200,9,1020
stim,11,11,0,721488.829,0.979,0.058,-0.063,-0.184,2269,0,151,2416,62,780,24,495,1,0.000,3,0,4.613,0.315,1.320,4.420,-0.040,-0.177,-0.105,0.958,-0.128,-0.288,0.072,0.000,0.000,0.000,0.000,1,2,0,2,7,255,1020,200,14,1020
stim,27,27,0,721493.829,0.979,0.058,-0.063,-0.184,2270,0,157,2424,59,777,24,501,1,0.000,3,0,3.991,0.328,-1.120,-3.820,-0.280,-0.119,-0.079,1.024,0.228,0.236,0.084,0.000,0.000,0.000,0.000,1,2,0,2,7,255,1020,200,19,1020
stim,27,27,0,721498.829,0.979,0.058,-0.063,-0.184,2279,0,150,2424,69,776,24,501,1,0.000,3,0,3.050,0.308,1.000,2.880,0.080,-0.172,-0.097,0.950,-0.224,-0.212,-0.236,0.000,0.000,0.000,0.000,1,2,0,2,7,255,1020,200,24,1020
stim,59,59,0,721503.830,0.979,0.058,-0.063,-0.184,2265,0,155,2409,61,780,21,505,1,0.000,3,0,2.323,0.280,-0.760,-2.180,0.260,-0.125,-0.083,1.022,0.218,0.176,0.294,0.000,0.000,0.000,0.000,1,2,0,2,7,255,1020,200,29,1020
stim,59,59,0,721508.829,0.979,0.058,-0.063,-0.184,2279,0,155,2413,58,778,25,499,1,0.000,3,0,1.770,0.240,0.520,1.540,-0.700,-0.165,-0.099,0.958,-0.144,-0.192,-0.250,0.000,0.000,0.000,0.000,1,2,0,2,7,255,1020,200,34,1020
stim,76,76,0,721513.829,0.979,0.058,-0.063,-0.184,2279,0,155,2421,59,783,22,494,1,0.000,3,0,1.582,0.214,-0.280,-1.140,1.060,-0.131,-0.080,1.007,0.140,0.162,0.158,0.000,0.000,0.000,0.000,1,2,0,2,7,255,1020,200,39,1020
stim,76,76,0,721518.829,0.979,0.058,-0.063,-0.184,2287,0,153,2419,60,783,24,496,1,0.000,3,0,1.640,0.158,0.100,0.880,-1.380,-0.158,-0.099,0.976,-0.064,-0.144,-0.090,0.000,0.000,0.000,0.000,1,2,0,2,7,255,1020,200,44,1020
stim,76,76,0,721523.829,0.979,0.058,-0.063,-0.184,2266,0,153,2411,58,779,23,497,1,0.000,3,0,1.519,0.105,0.100,-0.780,1.300,-0.140,-0.083,0.994,0.058,0.088,0.040,0.000,0.000,0.000,0.000,1,2,0,2,7,255,1020,200,49,1020
stim,76,76,0,721528.829,0.979,0.058,-0.063,-0.184,2268,0,151,2423,61,781,24,503,1,0.000,3,0,1.060,0.036,-0.020,0.560,-0.900,-0.149,-0.092,0.985,-0.006,-0.036,-0.018,0.000,0.000,0.000,0.000,1,2,0,2,7,255,1020,200,54,1020
stim,76,76,0,721533.829,0.979,0.058,-0.063,-0.184,2279,0,148,2419,61,778,24,502,1,0.000,3,0,0.479,0.036,-0.220,-0.280,0.320,-0.150,-0.094,0.985,-0.006,-0.036,-0.018,0.000,0.000,0.000,0.000,1,2,0,2,7,255,1020,200,59,1020
stim,76,76,0,721538.829,0.979,0.058,-0.063,-0.184,2283,0,150,2423,60,776,16,496,1,0.000,3,0,0.644,0.036,0.520,0.020,0.380,-0.140,-0.083,0.991,-0.006,-0.036,-0.018,0.000,0.000,0.000,0.000,1,2,0,2,7,255,1020,200,64,1020
stim,76,76,0,721543.829,0.979,0.058,-0.063,-0.184,2281,0,150,2423,61,776,21,496,1,0.000,3,0,0.851,0.059,-0.460,0.320,-0.640,-0.152,-0.096,0.985,-0.008,-0.058,-0.016,0.000,0.000,0.000,0.000,1,2,0,2,7,255,1020,200,69,1020
stim,76,76,0,721548.829,0.979,0.058,-0.063,-0.184,2275,0,151,2421,63,785,18,503,1,0.000,3,0,0.803,0.041,0.280,-0.480,0.580,-0.144,-0.089,0.988,0.040,0.008,-0.004,0.000,0.000,0.000,0.000,1,2,0,2,7,255,1020,200,74,1020
stim,91,91,0,721553.829,0.979,0.058,-0.063,-0.184,2268,0,157,2416,59,780,23,493,1,0.000,3,0,0.484,0.008,0.400,0.260,0.080,-0.147,-0.086,0.988,-0.002,0.008,-0.004,0.000,0.000,0.000,0.000,1,2,0,2,7,255,1020,200,79,1020
stim,91,91,0,721558.829,0.979,0.058,-0.063,-0.184,2267,0,153,2415,61,777,20,501,1,0.000,3,0,0.610,0.008,-0.460,0.020,-0.400,-0.150,-0.096,0.988,0.000,0.008,0.002,0.000,0.000,0.000,0.000,1,2,0,2,7,255,1020,200,84,1020
stim,91,91,0,721563.829,0.979,0.058,-0.063,-0.184,2265,0,157,2416,58,787,19,499,1,0.000,3,0,0.521,0.008,0.280,-0.220,0.380,-0.145,-0.088,0.985,0.000,0.008,0.002,0.000,0.000,0.000,0.000,1,2,0,2,7,255,1020,200,89,1020
stim,91,91,0,721568.829,0.979,0.058,-0.063,-0.184,2263,0,153,2424,61,787,16,506,1,0.000,3,0,0.448,0.022,0.400,0.020,0.200,-0.144,-0.088,0.990,0.020,0.008,0.010,0.000,0.000,0.000,0.000,1,2,0,2,7,255,1020,200,94,1020
stim,107,107,0,721573.829,0.979,0.058,-0.063,-0.184,2272,0,157,2415,55,787,13,499,1,0.000,3,0,0.405,0.022,-0.340,0.020,-0.220,-0.148,-0.094,0.989,0.020,0.008,0.016,0.000,0.000,0.000,0.000,1,2,0,2,7,255,1020,200,99,1020
stim,107,107,0,721578.829,0.979,0.058,-0.063,-0.184,2277,0,151,2412,67,787,16,501,1,0.000,3,0,0.134,0.027,0.040,-0.100,0.080,-0.146,-0.085,0.985,0.012,0.024,0.016,0.000,0.000,0.000,0.000,1,2,0,2,7,255,1020,200,104,1020
stim,107,107,0,721583.829,0.979,0.058,-0.063,-0.184,2263,0,151,2437,67,781,13,500,1,0.000,3,0,0.619,0.012,0.520,-0.100,0.320,-0.144,-0.090,0.988,0.012,0.002,0.002,0.000,0.000,0.000,0.000,1,2,0,2,7,255,1020,200,109,1020
stim,107,107,0,721588.829,0.979,0.058,-0.063,-0.184,2272,0,153,2419,61,786,21,499,1,0.000,3,0,0.115,0.032,-0.080,0.020,0.080,-0.147,-0.096,0.992,0.032,0.002,0.002,0.000,0.000,0.000,0.000,1,2,0,2,7,255,1020,200,114,1020
stim,155,155,0,721593.829,0.979,0.058,-0.063,-0.184,2275,0,149,2416,59,779,19,496,1,0.000,3,0,0.257,0.032,-0.200,0.020,-0.160,-0.149,-0.086,0.984,0.032,0.002,0.002,0.000,0.000,0.000,0.000,1,2,0,2,7,255,1020,200,119,1020
stim,155,155,0,721598.829,0.979,0.058,-0.063,-0.184,2266,0,155,2407,59,781,19,499,1,0.000,3,0,0.424,0.021,0.400,-0.100,-0.100,-0.145,-0.086,0.986,0.016,0.014,-0.026,0.000,0.000,0.000,0.000,1,2,0,2,7,255,1020,200,124,1020
stim,155,155,0,721603.829,0.979,0.058,-0.063,-0.184,2281,0,151,2415,67,776,12,502,1,0.000,3,0,0.346,0.021,0.280,-0.040,0.200,-0.145,-0.096,0.993,0.016,0.014,-0.026,0.000,0.000,0.000,0.000,1,2,0,2,7,255,1020,200,129,1020
stim,155,155,0,721608.829,0.979,0.058,-0.063,-0.184,2271,0,157,2412,63,785,18,496,1,0.000,3,0,0.467,0.032,-0.340,0.020,0.320,-0.148,-0.092,0.988,0.016,-0.028,0.004,0.000,0.000,0.000,0.000,1,2,0,2,7,255,1020,200,134,1020
stim,155,155,0,721613.829,0.979,0.058,-0.063,-0.184,2275,0,155,2411,61,781,13,503,1,0.000,3,0,0.115,0.029,0.100,-0.040,-0.040,-0.148,-0.084,0.983,0.006,-0.028,0.004,0.000,0.000,0.000,0.000,1,2,0,2,7,255,1020,200,139,1020
stim,155,155,0,721618.829,0.979,0.058,-0.063,-0.184,2280,0,155,2423,67,779,15,505,1,0.000,3,0,0.623,0.020,0.520,-0.040,-0.340,-0.146,-0.087,0.989,0.004,0.020,0.004,0.000,0.000,0.000,0.000,1,2,0,2,7,255,1020,200,144,1020
stim,171,171,0,721623.829,0.979,0.058,-0.063,-0.184,2271,0,151,2429,67,783,16,503,1,0.000,3,0,0.162,0.020,0.160,0.020,0.020,-0.144,-0.094,0.992,0.004,0.020,0.006,0.000,0.000,0.000,0.000,1,2,0,2,7,255,1020,200,149,1020
stim,171,171,0,721628.829,0.979,0.058,-0.063,-0.184,2272,0,152,2423,63,780,18,500,1,0.000,3,0,0.474,0.019,-0.280,-0.040,0.380,-0.146,-0.090,0.989,0.016,-0.010,0.010,0.000,0.000,0.000,0.000,1,2,0,2,7,255,1020,200,154,1020
stim,171,171,0,721633.829,0.979,0.058,-0.063,-0.184,2268,0,153,2424,59,785,19,504,1,0.000,3,0,0.290,0.019,-0.080,-0.100,0.260,-0.149,-0.088,0.984,0.016,-0.010,0.010,0.000,0.000,0.000,0.000,1,2,0,2,7,255,1020,200,159,1020
stim,171,171,0,721638.829,0.979,0.058,-0.063,-0.184,2269,0,151,2407,57,778,13,496,1,0.000,3,0,0.300,0.017,0.280,-0.040,-0.100,-0.149,-0.090,0.986,-0.014,-0.010,-0.010,0.000,0.000,0.000,0.000,1,2,0,2,7,255,1020,200,164,1020
stim,171,171,0,721643.829,0.979,0.058,-0.063,-0.184,2267,0,161,2431,60,785,19,503,1,0.000,3,0,0.357,0.014,0.220,0.020,-0.280,-0.146,-0.089,0.989,-0.014,-0.002,-0.010,0.000,0.000,0.000,0.000,1,2,0,2,7,255,1020,200,169,1020
stim,187,187,0,721648.829,0.979,0.058,-0.063,-0.184,2267,0,151,2419,61,789,18,501,1,0.000,3,0,0.147,0.018,0.100,-0.040,-0.100,-0.145,-0.087,0.989,0.018,0.002,0.004,0.000,0.000,0.000,0.000,1,2,0,2,7,255,1020,200,174,1020
stim,187,187,0,721653.829,0.979,0.058,-0.063,-0.184,2281,0,151,2405,59,776,12,495,1,0.000,3,0,0.264,0.020,-0.020,-0.040,0.260,-0.144,-0.089,0.989,0.018,0.008,0.006,0.000,0.000,0.000,0.000,1,2,0,2,7,255,1020,200,179,1020
stim,187,187,0,721658.829,0.979,0.058,-0.063,-0.184,2263,0,153,2437,60,778,11,504,1,0.000,3,0,0.417,0.020,-0.140,-0.100,0.380,-0.147,-0.092,0.987,0.018,0.008,0.004,0.000,0.000,0.000,0.000,1,2,0,2,7,255,1020,200,184,1020
stim,187,187,0,721663.829,0.979,0.058,-0.063,-0.184,2262,0,153,2427,57,778,16,505,1,0.000,3,0,0.166,0.029,-0.080,-0.040,0.140,-0.149,-0.090,0.984,0.016,-0.024,-0.002,0.000,0.000,0.000,0.000,1,2,0,2,7,255,1020,200,189,1020
stim,204,204,0,721668.829,0.979,0.058,-0.063,-0.184,2271,0,156,2422,59,780,20,499,1,0.000,3,0,0.398,0.026,0.280,-0.040,-0.280,-0.148,-0.088,0.985,-0.010,-0.024,-0.028,0.000,0.000,0.000,0.000,1,2,0,2,7,255,1020,200,194,1020
stim,204,204,0,721673.829,0.979,0.058,-0.063,-0.184,2279,0,156,2423,69,781,15,505,1,0.000,3,0,0.526,0.010,0.400,-0.040,-0.340,-0.145,-0.090,0.989,-0.010,-0.002,-0.028,0.000,0.000,0.000,0.000,1,2,0,2,7,255,1020,200,199,1020
stim,205,205,0,721678.829,0.979,0.058,-0.063,-0.184,2267,0,154,2409,63,780,12,503,1,0.000,3,0,0.173,0.028,0.100,0.020,0.140,-0.145,-0.090,0.991,0.028,-0.002,0.008,0.000,0.000,0.000,0.000,1,2,0,2,7,255,1020,200,204,1020
stim,205,205,0,721683.829,0.979,0.058,-0.063,-0.183,2277,0,154,2430,58,784,14,505,1,0.000,3,0,0.413,0.028,-0.160,0.020,0.380,-0.147,-0.088,0.989,0.028,0.004,0.008,0.000,0.000,0.000,0.000,1,2,0,2,7,255,1020,200,209,1020
stim,219,219,0,721688.829,0.979,0.058,-0.063,-0.183,2279,0,155,2407,63,781,11,505,1,0.000,3,0,0.259,0.004,-0.160,-0.040,0.200,-0.149,-0.089,0.987,0.000,0.004,0.008,0.000,0.000,0.000,0.000,1,2,0,2,7,255,1020,200,214,1020
stim,219,219,0,721693.829,0.979,0.058,-0.063,-0.183,2275,0,152,2421,67,785,17,505,1,0.000,3,0,0.143,0.009,0.100,0.020,-0.100,-0.148,-0.089,0.986,-0.004,-0.008,-0.002,0.000,0.000,0.000,0.000,1,2,0,2,7,255,1020,200,219,1020
stim,251,251,0,721698.829,0.979,0.058,-0.063,-0.183,2275,0,156,2423,57,783,17,505,1,0.000,3,0,0.275,0.009,0.160,-0.040,-0.220,-0.146,-0.090,0.989,-0.004,-0.008,-0.002,0.000,0.000,0.000,0.000,1,2,0,2,7,255,1020,200,224,1020
stim,251,251,0,721703.830,0.979,0.058,-0.063,-0.183,2273,0,151,2423,59,791,18,507,1,0.000,3,0,0.060,0.019,0.040,0.020,-0.040,-0.145,-0.089,0.989,0.018,-0.006,0.006,0.000,0.000,0.000,0.000,1,2,0,2,7,255,1020,200,229,1020
stim,251,251,0,721708.829,0.979,0.058,-0.063,-0.183,2268,0,160,2407,59,777,11,507,1,0.000,3,0,0.147,0.018,-0.020,-0.040,0.140,-0.146,-0.089,0.988,0.018,0.004,0.006,0.000,0.000,0.000,0.000,1,2,0,2,7,255,1020,200,234,1020
stim,251,251,0,721713.829,0.979,0.058,-0.063,-0.183,2269,0,157,2415,60,785,15,508,1,0.000,3,0,0.180,0.018,-0.160,0.020,0.080,-0.148,-0.090,0.988,0.018,0.004,0.004,0.000,0.000,0.000,0.000,1,2,0,2,7,255,1020,200,239,1020
stim,251,251,0,721718.829,0.979,0.058,-0.063,-0.183,2269,0,153,2423,57,789,9,504,1,0.000,3,0,0.035,0.018,-0.020,0.020,0.020,-0.146,-0.090,0.986,0.018,-0.004,0.002,0.000,0.000,0.000,0.000,1,2,0,2,7,255,1020,200,244,1020
stim,251,251,0,721723.829,0.979,0.058,-0.063,-0.183,2278,0,155,2425,56,787,17,507,1,0.000,3,0,0.143,0.018,0.100,0.020,-0.100,-0.146,-0.090,0.987,0.016,-0.008,-0.004,0.000,0.000,0.000,0.000,1,2,0,2,7,255,1020,200,249,1020
stim,267,267,0,721728.829,0.979,0.058,-0.063,-0.183,2263,0,151,2421,67,787,10,506,1,0.000,3,0,0.190,0.018,0.160,0.020,-0.100,-0.146,-0.090,0.988,0.018,-0.004,-0.004,0.000,0.000,0.000,0.000,1,2,0,2,7,255,1020,200,254,1020
stim,267,267,0,721733.829,0.979,0.058,-0.063,-0.183,2275,0,151,2419,65,788,11,503,1,0.000,3,0,0.049,0.020,0.040,0.020,0.020,-0.146,-0.090,0.989,0.020,0.000,0.004,0.000,0.000,0.000,0.000,1,2,0,2,7,255,1020,200,259,1020
stim,267,267,0,721738.829,0.979,0.058,-0.063,-0.183,2267,0,156,2420,61,787,11,502,1,0.000,3,0,0.092,0.020,-0.080,-0.040,0.020,-0.147,-0.089,0.987,0.020,0.000,0.004,0.000,0.000,0.000,0.000,1,2,0,2,7,255,1020,200,264,1020
stim,267,267,0,721743.829,0.979,0.058,-0.063,-0.183,2275,0,155,2409,59,781,18,499,1,0.000,3,0,0.092,0.003,-0.080,0.020,-0.040,-0.147,-0.090,0.987,0.002,-0.002,-0.008,0.000,0.000,0.000,0.000,1,2,0,2,7,255,1020,200,269,1020
stim,267,267,0,721748.829,0.979,0.058,-0.063,-0.183,2269,0,154,2421,55,785,10,505,1,0.000,3,0,0.069,0.008,0.040,-0.040,-0.040,-0.146,-0.091,0.987,0.002,-0.008,-0.008,0.000,0.000,0.000,0.000,1,2,0,2,7,255,1020,200,274,1020
stim,283,283,0,721753.829,0.979,0.058,-0.063,-0.183,2268,0,154,2415,58,783,13,503,1,0.000,3,0,0.069,0.010,0.040,-0.040,-0.040,-0.146,-0.089,0.988,0.006,-0.008,-0.004,0.000,0.000,0.000,0.000,1,2,0,2,7,255,1020,200,279,1020
stim,283,283,0,721758.829,0.979,0.058,-0.063,-0.183,2269,0,151,2405,56,776,12,499,1,0.000,3,0,0.060,0.006,0.040,0.020,-0.040,-0.147,-0.089,0.988,0.006,0.000,0.000,0.000,0.000,0.000,0.000,1,2,0,2,7,255,1020,200,284,1020
stim,301,301,0,721763.829,0.979,0.058,-0.063,-0.183,2274,0,155,2421,57,791,10,503,1,0.000,3,0,0.049,0.004,-0.020,0.020,-0.040,-0.147,-0.089,0.988,0.004,0.000,0.002,0.000,0.000,0.000,0.000,1,2,0,2,7,255,1020,200,289,1020
stim,301,301,0,721768.829,0.979,0.058,-0.063,-0.183,2279,0,152,2435,69,787,12,507,1,0.000,3,0,0.035,0.004,-0.020,0.020,0.020,-0.146,-0.089,0.987,0.004,0.000,0.000,0.000,0.000,0.000,0.000,1,2,0,2,7,255,1020,200,294,1020
stim,301,301,0,721773.829,0.979,0.058,-0.063,-0.183,2279,0,157,2413,56,789,15,499,1,0.000,3,0,0.060,0.006,-0.020,-0.040,-0.040,-0.146,-0.090,0.988,0.006,-0.002,0.000,0.000,0.000,0.000,0.000,1,2,0,2,7,255,1020,200,299,1020
stim,301,301,0,721778.829,0.979,0.058,-0.063,-0.183,2277,0,152,2427,63,787,16,507,1,0.000,3,0,0.049,0.008,0.040,0.020,0.020,-0.146,-0.090,0.988,0.008,-0.002,0.000,0.000,0.000,0.000,0.000,1,2,0,2,7,255,1020,200,304,1020
stim,315,315,0,721783.829,0.979,0.058,-0.063,-0.183,2284,0,155,2425,57,779,16,506,1,0.000,3,0,0.110,0.008,0.040,0.020,-0.100,-0.146,-0.089,0.988,0.008,-0.002,0.000,0.000,0.000,0.000,0.000,1,2,0,2,7,255,1020,200,309,1020
stim,315,315,0,721788.829,0.979,0.058,-0.063,-0.183,2275,0,155,2415,58,782,18,500,1,0.000,3,0,0.060,0.013,0.040,0.020,-0.040,-0.146,-0.089,0.989,0.012,0.004,0.000,0.000,0.000,0.000,0.000,1,2,0,2,7,255,1020,200,314,1020
stim,332,332,0,721793.829,0.979,0.058,-0.063,-0.183,2265,0,156,2437,59,789,11,507,1,0.000,3,0,0.035,0.013,-0.020,0.020,0.020,-0.146,-0.089,0.988,0.012,0.004,0.004,0.000,0.000,0.000,0.000,1,2,0,2,7,255,1020,200,319,1020
stim,332,332,0,721798.829,0.979,0.058,-0.063,-0.183,2277,0,157,2415,69,779,13,508,1,0.000,3,0,0.049,0.013,-0.020,-0.040,0.020,-0.146,-0.089,0.988,0.012,0.004,0.004,0.000,0.000,0.000,0.000,1,2,0,2,7,255,1020,200,324,1020
stim,347,347,0,721803.829,0.979,0.058,-0.063,-0.183,2275,0,155,2424,59,787,15,507,1,0.000,3,0,0.035,0.006,-0.020,0.020,0.020,-0.148,-0.090,0.988,0.006,0.002,0.004,0.000,0.000,0.000,0.000,1,2,0,2,7,255,1020,200,329,1020
stim,347,347,0,721808.829,0.979,0.058,-0.063,-0.183,2281,0,157,2413,57,779,18,495,1,0.000,3,0,0.049,0.010,-0.020,0.020,-0.040,-0.148,-0.090,0.988,-0.006,-0.008,0.002,0.000,0.000,0.000,0.000,1,2,0,2,7,255,1020,200,334,1020
stim,366,366,0,721813.829,0.979,0.058,-0.063,-0.183,2270,0,156,2415,61,790,16,505,1,0.000,3,0,0.060,0.010,-0.020,-0.040,-0.040,-0.146,-0.090,0.988,-0.006,-0.008,0.002,0.000,0.000,0.000,0.000,1,2,0,2,7,255,1020,200,339,1020
stim,366,366,0,721818.829,0.979,0.058,-0.063,-0.183,2284,0,156,2424,60,781,19,505,1,0.000,3,0,0.049,0.006,-0.020,0.020,-0.040,-0.146,-0.089,0.988,0.006,-0.002,0.002,0.000,0.000,0.000,0.000,1,2,0,2,7,255,1020,200,344,1020
stim,366,366,0,721823.829,0.979,0.058,-0.063,-0.183,2279,0,159,2423,63,784,10,504,1,0.000,3,0,0.049,0.006,-0.020,0.020,-0.040,-0.147,-0.089,0.987,0.006,0.000,0.000,0.000,0.000,0.000,0.000,1,2,0,2,7,255,1020,200,349,1020
stim,366,366,0,721828.829,0.979,0.058,-0.063,-0.183,2268,0,156,2425,57,787,17,505,1,0.000,3,0,0.060,0.004,0.040,-0.040,0.020,-0.146,-0.089,0.988,0.004,0.002,0.000,0.000,0.000,0.000,0.000,1,2,0,2,7,255,1020,200,354,1020
stim,366,366,0,721833.829,0.979,0.058,-0.063,-0.183,2281,0,153,2414,71,788,16,506,1,0.000,3,0,0.035,0.004,-0.020,0.020,0.020,-0.147,-0.090,0.988,0.004,0.000,0.004,0.000,0.000,0.000,0.000,1,2,0,2,7,255,1020,200,359,1020
stim,366,366,0,721838.829,0.979,0.058,-0.063,-0.183,2279,0,155,2413,60,782,16,503,1,0.000,3,0,0.035,0.006,-0.020,0.020,0.020,-0.146,-0.089,0.988,0.004,0.004,0.004,0.000,0.000,0.000,0.000,1,2,0,2,7,255,1020,200,364,1020
stim,379,379,0,721843.829,0.979,0.058,-0.063,-0.183,2275,0,150,2424,56,789,18,504,1,0.000,3,0,0.049,0.006,-0.020,-0.040,0.020,-0.147,-0.089,0.988,0.004,0.004,0.004,0.000,0.000,0.000,0.000,1,2,0,2,7,255,1020,200,369,1020
stim,379,379,0,721848.829,0.979,0.058,-0.063,-0.183,2277,0,159,2423,58,785,17,505,1,0.000,3,0,0.092,0.006,0.040,0.020,0.080,-0.147,-0.090,0.987,0.004,0.004,0.000,0.000,0.000,0.000,0.000,1,2,0,2,7,255,1020,200,374,1020
stim,379,379,0,721853.829,0.979,0.058,-0.063,-0.183,2279,0,153,2413,55,787,15,505,1,0.000,3,0,0.098,0.006,0.040,-0.040,0.080,-0.146,-0.089,0.987,0.004,0.004,-0.006,0.000,0.000,0.000,0.000,1,2,0,2,7,255,1020,200,379,1020
stim,379,379,0,721858.829,0.979,0.058,-0.063,-0.183,2267,0,153,2415,53,783,20,501,1,0.000,3,0,0.098,0.004,0.040,-0.040,0.080,-0.147,-0.090,0.988,0.004,-0.002,-0.006,0.000,0.000,0.000,0.000,1,2,0,2,7,255,1020,200,384,1020
stim,402,402,0,721863.829,0.979,0.058,-0.063,-0.183,2273,0,151,2424,59,787,18,503,1,0.000,3,0,0.049,0.009,-0.020,-0.040,0.020,-0.146,-0.089,0.988,0.004,0.008,0.000,0.000,0.000,0.000,0.000,1,2,0,2,7,255,1020,200,389,1020
stim,402,402,0,721868.829,0.979,0.058,-0.063,-0.183,2281,0,151,2427,58,784,20,503,1,0.000,3,0,0.098,0.004,0.040,-0.040,0.080,-0.147,-0.089,0.988,0.004,0.002,0.004,0.000,0.000,0.000,0.000,1,2,0,2,7,255,1020,200,394,1020
stim,402,402,0,721873.829,0.979,0.058,-0.063,-0.183,2279,0,151,2414,59,791,19,507,1,0.000,3,0,0.110,0.004,0.040,-0.100,0.020,-0.147,-0.089,0.988,0.002,0.004,0.000,0.000,0.000,0.000,0.000,1,2,0,2,7,255,1020,200,399,1020
stim,402,402,0,721878.829,0.979,0.059,-0.063,-0.183,2283,0,149,2413,57,791,20,504,1,0.000,3,0,0.162,0.003,0.100,-0.100,0.080,-0.147,-0.090,0.989,0.002,0.002,0.004,0.000,0.000,0.000,0.000,1,2,0,2,7,255,1020,200,404,1020
stim,411,411,0,721883.829,0.979,0.059,-0.063,-0.183,2276,0,152,2421,54,778,19,503,1,0.000,3,0,0.060,0.007,0.040,-0.040,0.020,-0.147,-0.088,0.988,-0.006,0.004,0.004,0.000,0.000,0.000,0.000,1,2,0,2,7,255,1020,200,409,1020
stim,411,411,0,721888.829,0.979,0.059,-0.063,-0.183,2283,0,154,2424,67,789,17,504,1,0.000,3,0,0.115,0.007,0.100,-0.040,-0.040,-0.147,-0.089,0.988,-0.006,0.004,0.004,0.000,0.000,0.000,0.000,1,2,0,2,7,255,1020,200,414,1020
stim,427,427,0,721893.829,0.979,0.059,-0.063,-0.183,2277,0,155,2420,55,784,13,505,1,0.000,3,0,0.060,0.007,0.040,-0.040,0.020,-0.146,-0.089,0.987,-0.006,0.004,0.000,0.000,0.000,0.000,0.000,1,2,0,2,7,255,1020,200,419,1020
stim,427,427,0,721898.829,0.979,0.059,-0.063,-0.183,2271,0,151,2427,60,780,18,507,1,0.000,3,0,0.110,0.004,0.040,-0.100,0.020,-0.146,-0.089,0.987,0.002,0.004,-0.006,0.000,0.000,0.000,0.000,1,2,0,2,7,255,1020,200,424,1020
stim,459,459,0,721903.830,0.979,0.059,-0.063,-0.183,2274,0,152,2421,61,787,17,509,1,0.000,3,0,0.115,0.003,0.100,-0.040,-0.040,-0.147,-0.089,0.988,0.002,0.002,-0.006,0.000,0.000,0.000,0.000,1,2,0,2,7,255,1020,200,429,1020
stim,459,459,0,721908.829,0.979,0.059,-0.063,-0.183,2275,0,153,2416,62,788,20,504,1,0.000,3,0,0.069,0.004,0.040,-0.040,-0.040,-0.146,-0.090,0.988,0.002,0.004,0.004,0.000,0.000,0.000,0.000,1,2,0,2,7,255,1020,200,434,1020
stim,459,459,0,721913.829,0.979,0.059,-0.063,-0.183,2272,0,159,2415,61,782,21,503,1,0.000,3,0,0.069,0.006,0.040,-0.040,-0.040,-0.146,-0.090,0.988,0.006,0.002,0.004,0.000,0.000,0.000,0.000,1,2,0,2,7,255,1020,200,439,1020
stim,459,459,0,721918.829,0.979,0.059,-0.063,-0.183,2275,0,151,2431,59,787,20,507,1,0.000,3,0,0.110,0.012,0.040,-0.100,0.020,-0.146,-0.090,0.988,0.012,0.002,0.004,0.000,0.000,0.000,0.000,1,2,0,2,7,255,1020,200,444,1020
stim,459,459,0,721923.829,0.979,0.059,-0.063,-0.183,2263,0,152,2417,87,782,12,507,1,0.000,3,0,0.049,0.006,0.040,0.020,0.020,-0.146,-0.089,0.987,0.006,0.002,0.004,0.000,0.000,0.000,0.000,1,2,0,2,7,255,1020,200,449,1020
stim,459,459,0,721928.829,0.979,0.059,-0.063,-0.183,2267,0,154,2412,97,789,11,505,1,0.000,3,0,0.069,0.013,0.040,-0.040,-0.040,-0.145,-0.089,0.987,0.012,0.004,-0.006,0.000,0.000,0.000,0.000,1,2,0,2,7,255,1020,200,454,1020
stim,477,477,0,721933.829,0.979,0.059,-0.063,-0.183,2263,0,155,2425,61,786,17,511,1,0.000,3,0,0.060,0.006,0.040,0.020,-0.040,-0.147,-0.089,0.987,0.004,0.004,-0.006,0.000,0.000,0.000,0.000,1,2,0,2,7,255,1020,200,459,1020
stim,477,477,0,721938.829,0.979,0.059,-0.063,-0.183,2277,0,157,2423,55,781,14,503,1,0.000,3,0,0.069,0.003,0.040,-0.040,-0.040,-0.147,-0.090,0.987,0.002,0.002,-0.004,0.000,0.000,0.000,0.000,1,2,0,2,7,255,1020,200,464,1020
stim,477,477,0,721943.829,0.979,0.059,-0.063,-0.183,2270,0,155,2415,61,782,13,505,1,0.000,3,0,0.060,0.003,0.040,-0.040,0.020,-0.146,-0.089,0.988,0.002,0.002,-0.004,0.000,0.000,0.000,0.000,1,2,0,2,7,255,1020,200,469,1020
stim,477,477,0,721948.830,0.979,0.059,-0.063,-0.183,2269,0,151,2413,65,787,18,507,1,0.000,3,0,0.060,0.010,0.040,0.020,-0.040,-0.147,-0.088,0.988,0.002,0.010,0.004,0.000,0.000,0.000,0.000,1,2,0,2,7,255,1020,200,474,1020
stim,491,491,0,721953.829,0.979,0.059,-0.063,-0.183,2283,0,156,2421,57,789,19,503,1,0.000,3,0,0.060,0.012,0.040,0.020,-0.040,-0.146,-0.090,0.988,0.006,0.010,0.004,0.000,0.000,0.000,0.000,1,2,0,2,7,255,1020,200,479,1020
stim,491,491,0,721958.829,0.979,0.059,-0.063,-0.183,2269,0,157,2414,57,783,15,501,1,0.000,3,0,0.060,0.012,0.040,0.020,-0.040,-0.146,-0.087,0.988,0.000,0.012,-0.002,0.000,0.000,0.000,0.000,1,2,0,2,7,255,1020,200,484,1020
stim,491,491,0,721963.829,0.979,0.059,-0.063,-0.183,2269,0,153,2423,57,784,19,504,1,0.000,3,0,0.115,0.010,0.040,-0.040,-0.100,-0.146,-0.089,0.989,0.002,0.010,-0.002,0.000,0.000,0.000,0.000,1,2,0,2,7,255,1020,200,489,1020
stim,491,491,0,721968.829,0.979,0.059,-0.063,-0.183,2285,0,159,2410,56,782,12,507,1,0.000,3,0,0.049,0.010,-0.020,0.020,-0.040,-0.147,-0.090,0.989,0.002,0.010,0.008,0.000,0.000,0.000,0.000,1,2,0,2,7,255,1020,200,494,1020
stim,507,507,0,721973.829,0.979,0.059,-0.063,-0.183,2267,0,155,2419,53,785,11,510,1,0.000,3,0,0.069,0.002,0.040,-0.040,-0.040,-0.147,-0.090,0.988,0.002,0.000,0.008,0.000,0.000,0.000,0.000,1,2,0,2,7,255,1020,200,499,1020
stim,507,507,0,721978.829,0.979,0.059,-0.063,-0.183,2276,0,152,2423,59,782,16,510,1,0.000,3,0,0.049,0.003,-0.020,0.020,-0.040,-0.146,-0.090,0.987,0.002,-0.002,0.006,0.000,0.000,0.000,0.000,1,2,0,2,7,255,1020,200,504,1020
stim,523,523,0,721983.829,0.979,0.059,-0.063,-0.183,2272,0,155,2411,60,787,18,507,1,0.000,3,0,0.049,0.003,-0.020,0.020,-0.040,-0.146,-0.089,0.987,0.002,-0.002,-0.006,0.000,0.000,0.000,0.000,1,2,0,2,7,255,1020,200,509,1020
stim,523,523,0,721988.829,0.979,0.059,-0.063,-0.183,2277,0,157,2408,59,787,17,517,1,0.000,3,0,0.049,0.003,-0.020,0.020,-0.040,-0.147,-0.090,0.988,0.002,-0.002,-0.006,0.000,0.000,0.000,0.000,1,2,0,2,7,255,1020,200,514,1020
stim,545,545,0,721993.829,0.979,0.059,-0.063,-0.183,2279,0,154,2421,59,787,16,508,1,0.000,3,0,0.035,0.004,-0.020,0.020,0.020,-0.146,-0.090,0.988,0.002,-0.004,0.000,0.000,0.000,0.000,0.000,1,2,0,2,7,255,1020,200,519,1020
stim,545,545,0,721998.829,0.979,0.059,-0.063,-0.183,2280,0,155,2411,57,784,11,508,1,0.000,3,0,0.035,0.007,-0.020,0.020,0.020,-0.146,-0.090,0.988,0.006,-0.004,0.000,0.000,0.000,0.000,0.000,1,2,0,2,7,255,1020,200,524,1020
stim,545,545,0,722003.829,0.979,0.059,-0.063,-0.183,2277,0,154,2437,61,791,16,511,1,0.000,3,0,0.092,0.007,0.040,0.020,0.080,-0.147,-0.089,0.988,0.006,0.004,0.000,0.000,0.000,0.000,0.000,1,2,0,2,7,255,1020,200,529,1020
stim,545,545,0,722008.829,0.979,0.059,-0.063,-0.183,2281,0,155,2413,59,789,11,504,1,0.000,3,0,0.035,0.004,-0.020,0.020,0.020,-0.147,-0.090,0.987,0.000,0.004,-0.002,0.000,0.000,0.000,0.000,1,2,0,2,7,255,1020,200,534,1020
stim,545,545,0,722013.829,0.979,0.059,-0.063,-0.183,2267,0,155,2439,57,787,14,507,1,0.000,3,0,0.035,0.002,-0.020,0.020,0.020,-0.146,-0.090,0.988,0.000,0.002,0.004,0.000,0.000,0.000,0.000,1,2,0,2,7,255,1020,200,539,1020
stim,546,546,0,722018.829,0.979,0.059,-0.063,-0.183,2278,0,155,2420,59,778,13,503,1,0.000,3,0,0.049,0.000,0.040,0.020,0.020,-0.148,-0.089,0.987,0.000,0.000,-0.004,0.000,0.000,0.000,0.000,1,2,0,2,7,255,1020,200,544,1020
stim,546,546,0,722023.829,0.979,0.059,-0.063,-0.183,2281,0,153,2424,53,784,20,507,1,0.000,3,0,0.060,0.002,0.040,-0.040,0.020,-0.146,-0.090,0.986,0.002,0.000,-0.004,0.000,0.000,0.000,0.000,1,2,0,2,7,255,1020,200,549,1020
stim,576,576,0,722028.829,0.979,0.059,-0.063,-0.183,2263,0,158,2419,51,781,18,506,1,0.000,3,0,0.092,0.006,0.040,0.020,0.080,-0.147,-0.090,0.987,-0.006,-0.002,-0.008,0.000,0.000,0.000,0.000,1,2,0,2,7,255,1020,200,554,1020
stim,576,576,0,722033.829,0.979,0.059,-0.063,-0.183,2281,0,154,2413,56,781,18,508,1,0.000,3,0,0.060,0.006,0.040,-0.040,0.020,-0.147,-0.090,0.987,-0.004,-0.004,-0.008,0.000,0.000,0.000,0.000,1,2,0,2,7,255,1020,200,559,1020
stim,576,576,0,722038.829,0.979,0.059,-0.063,-0.183,2283,0,151,2427,57,779,20,507,1,0.000,3,0,0.183,0.006,0.160,-0.040,0.080,-0.147,-0.089,0.988,-0.004,-0.004,-0.002,0.000,0.000,0.000,0.000,1,2,0,2,7,255,1020,200,564,1020
stim,576,576,0,722043.830,0.979,0.059,-0.063,-0.183,2270,0,154,2410,51,787,17,509,1,0.000,3,0,0.110,0.004,0.100,-0.040,0.020,-0.147,-0.090,0.988,-0.004,0.000,0.000,0.000,0.000,0.000,0.000,1,2,0,2,7,255,1020,200,569,1020
stim,576,576,0,722048.829,0.979,0.059,-0.063,-0.183,2279,0,156,2415,59,793,13,507,1,0.000,3,0,0.134,0.000,0.100,-0.040,0.080,-0.146,-0.091,0.989,0.000,0.000,0.000,0.000,0.000,0.000,0.000,1,2,0,2,7,255,1020,200,574,1020
stim,576,576,0,722053.829,0.979,0.059,-0.063,-0.183,2267,0,155,2429,59,790,12,518,1,0.000,3,0,0.110,0.000,0.100,-0.040,0.020,-0.147,-0.090,0.988,0.000,0.000,0.006,0.000,0.000,0.000,0.000,1,2,0,2,7,255,1020,200,579,1020
stim,588,588,0,722058.829,0.979,0.059,-0.063,-0.183,2270,0,151,2420,55,779,13,505,1,0.000,3,0,0.110,0.000,0.100,-0.040,0.020,-0.147,-0.089,0.988,0.000,0.000,0.006,0.000,0.000,0.000,0.000,1,2,0,2,7,255,1020,200,584,1020
stim,588,588,0,722063.829,0.979,0.059,-0.063,-0.183,2285,0,152,2419,51,793,20,507,1,0.000,3,0,0.060,0.006,0.040,0.020,-0.040,-0.147,-0.089,0.989,-0.002,0.006,0.006,0.000,0.000,0.000,0.000,1,2,0,2,7,255,1020,200,589,1020
stim,609,609,0,722068.829,0.979,0.059,-0.063,-0.183,2283,0,153,2423,58,789,12,517,1,0.000,3,0,0.104,0.006,0.100,0.020,0.020,-0.147,-0.090,0.988,-0.002,0.006,0.006,0.000,0.000,0.000,0.000,1,2,0,2,7,255,1020,200,594,1020
stim,609,609,0,722073.829,0.979,0.059,-0.063,-0.183,2285,0,154,2424,59,789,16,509,1,0.000,3,0,0.110,0.006,0.100,-0.040,0.020,-0.146,-0.089,0.988,0.000,0.006,0.006,0.000,0.000,0.000,0.000,1,2,0,2,7,255,1020,200,599,1020
stim,609,609,0,722078.829,0.979,0.059,-0.063,-0.183,2267,0,149,2421,53,789,10,507,1,0.000,3,0,0.104,0.002,0.100,0.020,0.020,-0.146,-0.091,0.988,0.002,0.000,0.006,0.000,0.000,0.000,0.000,1,2,0,2,7,255,1020,200,604,1020
stim,609,609,0,722083.829,0.979,0.059,-0.063,-0.183,2268,0,154,2413,59,782,16,508,1,0.000,3,0,0.104,0.009,0.100,0.020,0.020,-0.146,-0.090,0.988,0.008,0.004,0.004,0.000,0.000,0.000,0.000,1,2,0,2,7,255,1020,200,609,1020
stim,610,610,0,722088.829,0.979,0.059,-0.063,-0.183,2285,0,153,2423,55,783,19,505,1,0.000,3,0,0.104,0.009,0.100,0.020,0.020,-0.146,-0.089,0.988,0.008,0.004,0.004,0.000,0.000,0.000,0.000,1,2,0,2,7,255,1020,200,614,1020
stim,610,610,0,722093.829,0.979,0.059,-0.063,-0.183,2269,0,153,2424,59,790,19,505,1,0.000,3,0,0.143,0.009,0.100,-0.100,0.020,-0.146,-0.091,0.987,0.008,0.004,0.004,0.000,0.000,0.000,0.000,1,2,0,2,7,255,1020,200,619,1020
stim,651,651,0,722098.829,0.979,0.059,-0.063,-0.183,2267,0,155,2413,52,791,22,505,1,0.000,3,0,0.049,0.007,0.040,0.020,0.020,-0.147,-0.089,0.987,0.006,0.004,-0.004,0.000,0.000,0.000,0.000,1,2,0,2,7,255,1020,200,624,1020
stim,651,651,0,722103.829,0.979,0.059,-0.063,-0.183,2278,0,154,2437,59,788,13,511,1,0.000,3,0,0.049,0.004,0.040,0.020,0.020,-0.146,-0.089,0.987,0.000,0.004,-0.004,0.000,0.000,0.000,0.000,1,2,0,2,7,255,1020,200,629,1020
stim,651,651,0,722108.830,0.979,0.059,-0.063,-0.183,2266,0,155,2416,53,779,16,507,1,0.000,3,0,0.104,0.006,0.100,0.020,0.020,-0.146,-0.089,0.987,0.000,0.006,-0.006,0.000,0.000,0.000,0.000,1,2,0,2,7,255,1020,200,634,1020
stim,651,651,0,722113.829,0.979,0.059,-0.063,-0.183,2289,0,151,2414,56,791,18,504,1,0.000,3,0,0.110,0.010,0.100,-0.040,0.020,-0.146,-0.089,0.990,0.000,0.010,-0.006,0.000,0.000,0.000,0.000,1,2,0,2,7,255,1020,200,639,1020
stim,651,651,0,722118.829,0.979,0.059,-0.063,-0.183,2277,0,157,2423,59,793,21,506,1,0.000,3,0,0.110,0.010,0.100,0.020,-0.040,-0.146,-0.089,0.988,0.002,0.010,0.004,0.000,0.000,0.000,0.000,1,2,0,2,7,255,1020,200,644,1020
stim,651,651,0,722123.829,0.979,0.059,-0.063,-0.183,2268,0,151,2417,55,787,19,511,1,0.000,3,0,0.069,0.009,0.040,-0.040,-0.040,-0.146,-0.090,0.988,0.004,0.008,0.004,0.000,0.000,0.000,0.000,1,2,0,2,7,255,1020,200,649,1020
stim,667,667,0,722128.829,0.979,0.059,-0.063,-0.183,2279,0,157,2426,56,787,21,507,1,0.000,3,0,0.049,0.008,-0.020,-0.040,0.020,-0.146,-0.089,0.988,0.002,0.008,0.004,0.000,0.000,0.000,0.000,1,2,0,2,7,255,1020,200,654,1020
stim,667,667,0,722133.829,0.979,0.059,-0.063,-0.183,2267,0,151,2436,57,783,17,508,1,0.000,3,0,0.060,0.009,0.040,0.020,-0.040,-0.146,-0.089,0.987,0.004,0.008,0.004,0.000,0.000,0.000,0.000,1,2,0,2,7,255,1020,200,659,1020
stim,667,667,0,722138.829,0.979,0.059,-0.063,-0.183,2276,0,153,2421,59,788,20,504,1,0.000,3,0,0.049,0.008,-0.020,-0.040,0.020,-0.147,-0.089,0.988,0.000,0.008,0.000,0.000,0.000,0.000,0.000,1,2,0,2,7,255,1020,200,664,1020
stim,667,667,0,722143.829,0.979,0.059,-0.063,-0.183,2262,0,155,2402,71,782,18,507,1,0.000,3,0,0.049,0.008,-0.020,0.020,-0.040,-0.146,-0.089,0.988,0.000,0.008,-0.002,0.000,0.000,0.000,0.000,1,2,0,2,7,255,1020,200,669,1020
stim,667,667,0,722148.829,0.979,0.059,-0.063,-0.183,2275,0,151,2425,61,791,19,508,1,0.000,3,0,0.035,0.009,-0.020,0.020,0.020,-0.147,-0.089,0.988,-0.004,0.008,0.000,0.000,0.000,0.000,0.000,1,2,0,2,7,255,1020,200,674,1020
stim,683,683,0,722153.829,0.979,0.059,-0.063,-0.183,2261,0,152,2416,53,789,16,517,1,0.000,3,0,0.060,0.010,0.040,-0.040,0.020,-0.146,-0.089,0.988,0.000,0.010,0.004,0.000,0.000,0.000,0.000,1,2,0,2,7,255,1020,200,679,1020
stim,683,683,0,722158.829,0.979,0.059,-0.063,-0.183,2272,0,157,2424,59,793,17,511,1,0.000,3,0,0.092,0.007,-0.080,-0.040,0.020,-0.147,-0.089,0.988,-0.004,0.006,0.004,0.000,0.000,0.000,0.000,1,2,0,2,7,255,1020,200,684,1020
stim,699,699,0,722163.829,0.979,0.059,-0.063,-0.183,2281,0,155,2413,55,791,21,507,1,0.000,3,0,0.049,0.011,-0.020,-0.040,0.020,-0.148,-0.089,0.989,-0.008,0.008,0.006,0.000,0.000,0.000,0.000,1,2,0,2,7,255,1020,200,689,1020
stim,699,699,0,722168.829,0.979,0.059,-0.063,-0.183,2279,0,154,2423,59,781,25,507,1,0.000,3,0,0.035,0.009,-0.020,0.020,0.020,-0.147,-0.090,0.988,-0.008,0.004,0.006,0.000,0.000,0.000,0.000,1,2,0,2,7,255,1020,200,694,1020
stim,715,715,0,722173.829,0.979,0.059,-0.063,-0.183,2267,0,155,2411,61,784,18,517,1,0.000,3,0,0.049,0.008,0.040,0.020,0.020,-0.147,-0.089,0.988,-0.006,0.006,0.006,0.000,0.000,0.000,0.000,1,2,0,2,7,255,1020,200,699,1020
stim,715,715,0,722178.829,0.979,0.059,-0.063,-0.183,2267,0,153,2427,56,788,22,507,1,0.000,3,0,0.115,0.007,0.040,-0.100,-0.040,-0.147,-0.089,0.988,-0.004,0.006,0.004,0.000,0.000,0.000,0.000,1,2,0,2,7,255,1020,200,704,1020
stim,715,715,0,722183.829,0.979,0.059,-0.063,-0.183,2280,0,157,2416,61,788,21,504,1,0.000,3,0,0.060,0.007,0.040,-0.040,0.020,-0.148,-0.088,0.988,-0.004,0.006,0.000,0.000,0.000,0.000,0.000,1,2,0,2,7,255,1020,200,709,1020
stim,715,715,0,722188.829,0.979,0.059,-0.063,-0.183,2266,0,152,2411,62,787,18,517,1,0.000,3,0,0.069,0.007,0.040,-0.040,-0.040,-0.146,-0.090,0.988,-0.004,0.006,0.004,0.000,0.000,0.000,0.000,1,2,0,2,7,255,1020,200,714,1020
stim,715,715,0,722193.829,0.979,0.059,-0.063,-0.183,2279,0,152,2410,60,793,17,508,1,0.000,3,0,0.069,0.006,0.040,-0.040,-0.040,-0.147,-0.089,0.989,-0.002,0.006,0.004,0.000,0.000,0.000,0.000,1,2,0,2,7,255,1020,200,719,1020
stim,715,715,0,722198.829,0.979,0.059,-0.063,-0.183,2271,0,153,2410,62,791,12,509,1,0.000,3,0,0.049,0.006,-0.020,0.020,-0.040,-0.146,-0.090,0.989,0.004,0.004,0.008,0.000,0.000,0.000,0.000,1,2,0,2,7,255,1020,200,724,1020
stim,747,747,0,722203.829,0.979,0.059,-0.063,-0.183,2281,0,152,2440,55,789,20,511,1,0.000,3,0,0.110,0.004,-0.020,-0.040,-0.100,-0.147,-0.090,0.987,-0.002,0.004,0.008,0.000,0.000,0.000,0.000,1,2,0,2,7,255,1020,200,729,1020
stim,747,747,0,722208.830,0.979,0.059,-0.063,-0.183,2281,0,155,2410,55,788,12,515,1,0.000,3,0,0.049,0.004,-0.020,0.020,-0.040,-0.146,-0.089,0.988,0.000,0.004,-0.002,0.000,0.000,0.000,0.000,1,2,0,2,7,255,1020,200,734,1020
stim,747,747,0,722213.829,0.979,0.059,-0.063,-0.183,2271,0,151,2423,55,788,21,508,1,0.000,3,0,0.060,0.004,0.040,0.020,-0.040,-0.147,-0.089,0.987,-0.002,0.004,-0.004,0.000,0.000,0.000,0.000,1,2,0,2,7,255,1020,200,739,1020
stim,747,747,0,722218.829,0.979,0.059,-0.063,-0.183,2269,0,154,2412,63,795,18,517,1,0.000,3,0,0.110,0.008,-0.020,-0.040,-0.100,-0.146,-0.089,0.987,-0.002,0.008,-0.006,0.000,0.000,0.000,0.000,1,2,0,2,7,255,1020,200,744,1020
stim,747,747,0,722223.829,0.979,0.059,-0.063,-0.183,2279,0,156,2411,60,795,13,507,1,0.000,3,0,0.110,0.009,0.040,0.020,-0.100,-0.147,-0.089,0.987,-0.004,0.008,-0.006,0.000,0.000,0.000,0.000,1,2,0,2,7,255,1020,200,749,1020
stim,747,747,0,722228.829,0.979,0.059,-0.063,-0.183,2267,0,150,2420,63,795,16,509,1,0.000,3,0,0.060,0.008,-0.020,-0.040,-0.040,-0.146,-0.090,0.989,-0.002,0.008,-0.004,0.000,0.000,0.000,0.000,1,2,0,2,7,255,1020,200,754,1020
stim,763,763,0,722233.829,0.979,0.059,-0.063,-0.183,2283,0,157,2424,63,788,17,519,1,0.000,3,0,0.049,0.008,-0.020,0.020,-0.040,-0.146,-0.090,0.988,0.006,0.006,-0.002,0.000,0.000,0.000,0.000,1,2,0,2,7,255,1020,200,759,1020
stim,763,763,0,722238.829,0.979,0.059,-0.063,-0.183,2269,0,153,2425,57,781,12,510,1,0.000,3,0,0.049,0.008,-0.020,0.020,-0.040,-0.146,-0.089,0.987,0.006,0.006,-0.002,0.000,0.000,0.000,0.000,1,2,0,2,7,255,1020,200,764,1020
stim,779,779,0,722243.829,0.979,0.059,-0.063,-0.183,2279,0,155,2413,57,793,15,508,1,0.000,3,0,0.049,0.006,-0.020,-0.040,0.020,-0.146,-0.089,0.988,0.000,0.006,-0.002,0.000,0.000,0.000,0.000,1,2,0,2,7,255,1020,200,769,1020
stim,779,779,0,722248.829,0.979,0.059,-0.063,-0.183,2267,0,152,2425,56,787,15,517,1,0.000,3,0,0.049,0.008,-0.020,0.020,-0.040,-0.146,-0.089,0.988,0.000,0.008,-0.002,0.000,0.000,0.000,0.000,1,2,0,2,7,255,1020,200,774,1020
stim,779,779,0,722253.829,0.979,0.059,-0.063,-0.183,2270,0,151,2424,61,790,19,512,1,0.000,3,0,0.060,0.008,-0.020,-0.040,-0.040,-0.147,-0.090,0.987,0.000,0.008,-0.002,0.000,0.000,0.000,0.000,1,2,0,2,7,255,1020,200,779,1020
stim,779,779,0,722258.829,0.979,0.059,-0.063,-0.183,2275,0,157,2425,56,793,14,507,1,0.000,3,0,0.035,0.000,-0.020,0.020,0.020,-0.146,-0.090,0.987,0.000,0.000,-0.010,0.000,0.000,0.000,0.000,1,2,0,2,7,255,1020,200,784,1020
stim,795,795,0,722263.829,0.979,0.059,-0.063,-0.183,2269,0,154,2415,58,791,12,507,1,0.000,3,0,0.069,0.002,0.040,-0.040,-0.040,-0.146,-0.090,0.989,0.002,0.000,-0.010,0.000,0.000,0.000,0.000,1,2,0,2,7,255,1020,200,789,1020
stim,795,795,0,722268.829,0.979,0.059,-0.063,-0.183,2281,0,155,2423,57,787,12,505,1,0.000,3,0,0.049,0.004,-0.020,-0.040,0.020,-0.146,-0.089,0.988,0.002,0.004,0.004,0.000,0.000,0.000,0.000,1,2,0,2,7,255,1020,200,794,1020
stim,811,811,0,722273.829,0.979,0.059,-0.063,-0.183,2277,0,150,2410,60,789,18,517,1,0.000,3,0,0.049,0.008,-0.020,-0.040,0.020,-0.146,-0.089,0.988,0.002,0.008,0.004,0.000,0.000,0.000,0.000,1,2,0,2,7,255,1020,200,799,1020
stim,811,811,0,722278.829,0.979,0.059,-0.063,-0.183,2272,0,151,2421,55,792,20,509,1,0.000,3,0,0.098,0.008,0.040,-0.040,0.080,-0.147,-0.091,0.988,0.002,0.008,0.004,0.000,0.000,0.000,0.000,1,2,0,2,7,255,1020,200,804,1020
stim,811,811,0,722283.829,0.979,0.059,-0.063,-0.183,2283,0,159,2416,61,784,12,517,1,0.000,3,0,0.035,0.004,-0.020,0.020,0.020,-0.146,-0.090,0.988,0.002,0.004,0.000,0.000,0.000,0.000,0.000,1,2,0,2,7,255,1020,200,809,1020
stim,811,811,0,722288.829,0.979,0.059,-0.063,-0.183,2280,0,155,2424,59,791,13,505,1,0.000,3,0,0.092,0.004,0.040,0.020,0.080,-0.146,-0.089,0.988,0.002,0.004,0.000,0.000,0.000,0.000,0.000,1,2,0,2,7,255,1020,200,814,1020
stim,843,843,0,722293.829,0.979,0.059,-0.063,-0.183,2278,0,155,2427,57,791,19,519,1,0.000,3,0,0.060,0.006,0.040,-0.040,0.020,-0.146,-0.090,0.987,0.002,0.006,-0.002,0.000,0.000,0.000,0.000,1,2,0,2,7,255,1020,200,819,1020
stim,843,843,1,722298.829,0.979,0.059,-0.063,-0.183,2277,0,155,2427,58,784,19,521,1,0.000,3,0,0.134,0.006,0.100,-0.040,0.080,-0.147,-0.090,0.987,0.000,0.006,-0.004,0.000,0.000,0.000,0.000,1,2,1,2,7,255,1020,200,824,1020
stim,843,843,1,722303.829,0.979,0.059,-0.063,-0.183,2283,0,151,2419,67,791,19,511,1,0.000,3,0,0.134,0.006,0.100,-0.040,0.080,-0.146,-0.091,0.988,0.006,0.000,-0.004,0.000,0.000,0.000,0.000,1,2,1,2,7,255,1020,200,829,1020
stim,843,843,1,722308.830,0.979,0.059,-0.063,-0.183,2267,0,152,2421,50,791,12,515,1,0.000,3,0,0.134,0.004,0.100,-0.040,0.080,-0.147,-0.090,0.988,-0.004,0.000,0.000,0.000,0.000,0.000,0.000,1,2,1,2,7,255,1020,200,834,1020
stim,843,843,1,722313.829,0.979,0.059,-0.063,-0.183,2279,0,151,2413,57,788,11,507,1,0.000,3,0,0.134,0.004,0.100,-0.040,0.080,-0.148,-0.089,0.987,-0.004,0.000,0.000,0.000,0.000,0.000,0.000,1,2,1,2,7,255,1020,200,839,1020
stim,843,843,1,722318.829,0.979,0.059,-0.063,-0.183,2270,0,153,2411,55,791,11,507,1,0.000,3,0,0.115,0.004,0.100,-0.040,-0.040,-0.146,-0.089,0.988,-0.004,0.002,0.000,0.000,0.000,0.000,0.000,1,2,1,2,7,255,1020,200,844,1020
stim,875,875,1,722323.829,0.979,0.059,-0.063,-0.183,2271,0,155,2421,59,791,16,507,1,0.000,3,0,0.060,0.012,0.040,0.020,-0.040,-0.146,-0.089,0.988,0.002,0.012,-0.002,0.000,0.000,0.000,0.000,1,2,1,2,7,255,1020,200,849,1020
stim,875,875,1,722328.829,0.979,0.059,-0.063,-0.183,2277,0,153,2427,55,793,13,509,1,0.000,3,0,0.110,0.014,0.100,-0.040,0.020,-0.146,-0.089,0.988,0.008,0.012,0.002,0.000,0.000,0.000,0.000,1,2,1,2,7,255,1020,200,854,1020
stim,875,875,1,722333.829,0.979,0.059,-0.063,-0.183,2265,0,157,2415,58,793,20,511,1,0.000,3,0,0.350,0.014,0.100,-0.100,0.320,-0.147,-0.091,0.988,0.008,0.012,0.002,0.000,0.000,0.000,0.000,1,2,1,2,7,255,1020,200,859,1020
stim,875,875,1,722338.829,0.979,0.059,-0.063,-0.183,2279,0,157,2427,56,792,16,519,1,0.000,3,0,0.414,0.003,0.040,-0.160,0.380,-0.149,-0.089,0.990,-0.002,0.002,0.002,0.000,0.000,0.000,0.000,1,2,1,2,7,255,1020,200,864,1020
stim,875,875,1,722343.829,0.979,0.059,-0.063,-0.183,2267,0,151,2424,57,792,12,516,1,0.000,3,0,0.725,0.020,-0.020,0.080,-0.720,-0.148,-0.087,0.989,-0.020,0.002,0.012,0.000,0.000,0.000,0.000,1,2,1,2,7,255,1020,200,869,1020
stim,875,875,1,722348.829,0.979,0.059,-0.063,-0.183,2266,0,155,2411,59,787,16,507,1,0.000,3,0,0.859,0.026,0.160,0.080,-0.840,-0.143,-0.089,0.985,-0.020,0.016,0.012,0.000,0.000,0.000,0.000,1,2,1,2,7,255,1020,200,874,1020
stim,891,891,1,722353.829,0.979,0.059,-0.063,-0.183,2269,0,152,2416,54,793,13,505,1,0.000,3,0,1.827,0.036,0.280,-0.480,1.740,-0.144,-0.091,0.989,0.032,0.016,0.010,0.000,0.000,0.000,0.000,1,2,1,2,7,255,1020,200,879,1020
stim,891,891,1,722358.829,0.979,0.059,-0.063,-0.183,2273,0,156,2428,54,783,14,507,1,0.000,3,0,0.785,0.033,-0.460,0.260,-0.580,-0.145,-0.093,0.996,0.032,0.006,0.010,0.000,0.000,0.000,0.000,1,2,1,2,7,255,1020,200,884,1020
stim,891,891,1,722363.829,0.979,0.059,-0.063,-0.183,2268,0,156,2413,55,791,19,517,1,0.000,3,0,0.642,0.034,0.040,0.020,0.640,-0.160,-0.089,0.973,0.032,-0.012,0.010,0.000,0.000,0.000,0.000,1,2,1,2,7,255,1020,200,889,1020
stim,891,891,1,722368.829,0.979,0.059,-0.063,-0.183,2275,0,153,2415,57,791,16,519,1,0.000,3,0,0.882,0.036,0.460,-0.720,-0.220,-0.131,-0.069,1.000,0.034,-0.012,0.076,0.000,0.000,0.000,0.000,1,2,1,2,7,255,1020,200,894,1020
stim,908,908,1,722373.829,0.979,0.059,-0.063,-0.183,2267,0,153,2415,54,791,14,508,1,0.000,3,0,2.076,0.061,0.460,1.360,-1.500,-0.161,-0.122,0.979,-0.018,-0.058,-0.042,0.000,0.000,0.000,0.000,1,2,1,2,7,255,1020,200,899,1020
stim,908,908,1,722378.829,0.979,0.059,-0.063,-0.183,2266,0,155,2419,56,784,18,507,1,0.000,3,0,2.906,0.271,-0.700,-2.120,1.860,-0.122,-0.057,1.001,0.084,0.258,0.062,0.000,0.000,0.000,0.000,1,2,1,2,7,255,1020,200,904,1020
stim,924,924,1,722383.829,0.979,0.059,-0.063,-0.183,2275,0,149,2425,55,789,14,507,1,0.000,3,0,2.484,0.352,0.760,2.340,-0.340,-0.172,-0.116,0.966,-0.018,-0.352,-0.042,0.000,0.000,0.000,0.000,1,2,1,2,7,255,1020,200,909,1020
stim,924,924,1,722388.829,0.979,0.059,-0.063,-0.183,2268,0,152,2413,57,789,13,508,1,0.000,3,0,2.686,0.291,-0.700,-2.540,-0.520,-0.129,-0.071,1.016,0.118,0.266,0.062,0.000,0.000,0.000,0.000,1,2,1,2,7,255,1020,200,914,1020
stim,924,924,1,722393.829,0.979,0.059,-0.063,-0.183,2271,0,151,2413,57,792,16,509,1,0.000,3,0,2.495,0.133,0.820,2.040,1.180,-0.155,-0.092,0.954,-0.098,-0.090,-0.152,0.000,0.000,0.000,0.000,1,2,1,2,7,255,1020,200,919,1020
stim,924,924,1,722398.829,0.979,0.059,-0.063,-0.183,2268,0,152,2421,57,789,13,508,1,0.000,3,0,1.580,0.076,-0.220,-0.840,-1.320,-0.146,-0.098,1.019,0.072,-0.024,0.226,0.000,0.000,0.000,0.000,1,2,1,2,7,255,1020,200,924,1020
stim,955,955,1,722403.829,0.979,0.059,-0.063,-0.183,2268,0,151,2421,57,788,14,507,1,0.000,3,0,0.227,0.065,-0.140,-0.160,0.080,-0.151,-0.090,0.970,-0.050,-0.042,-0.162,0.000,0.000,0.000,0.000,1,2,1,2,7,255,1020,200,929,1020
stim,955,955,1,722408.830,0.979,0.059,-0.063,-0.183,2281,0,149,2424,61,789,16,511,1,0.000,3,0,0.345,0.076,0.280,0.200,0.020,-0.130,-0.076,0.996,0.072,-0.024,0.040,0.000,0.000,0.000,0.000,1,2,1,2,7,255,1020,200,934,1020
stim,955,955,1,722413.829,0.979,0.059,-0.063,-0.183,2265,0,152,2409,59,788,18,507,1,0.000,3,0,2.009,0.063,0.340,0.020,1.980,-0.148,-0.083,0.978,-0.050,0.038,-0.098,0.000,0.000,0.000,0.000,1,2,1,2,7,255,1020,200,939,1020
stim,955,955,1,722418.829,0.979,0.059,-0.063,-0.183,2273,0,147,2415,59,792,13,506,1,0.000,3,0,1.332,0.063,-0.520,0.680,-1.020,-0.174,-0.119,1.001,-0.050,0.038,0.040,0.000,0.000,0.000,0.000,1,2,1,2,7,255,1020,200,944,1020
stim,955,955,1,722423.829,0.979,0.059,-0.063,-0.183,2265,0,152,2415,59,790,18,510,1,0.000,3,0,3.013,0.050,-0.160,-1.940,-2.300,-0.143,-0.093,0.991,-0.050,-0.006,0.028,0.000,0.000,0.000,0.000,1,2,1,2,7,255,1020,200,949,1020
stim,955,955,1,722428.829,0.979,0.059,-0.063,-0.183,2265,0,135,2414,53,789,13,510,1,0.000,3,0,1.712,0.052,0.520,1.240,1.060,-0.121,-0.060,0.970,0.052,-0.006,0.028,0.000,0.000,0.000,0.000,1,2,1,2,7,255,1020,200,954,1020
stim,975,975,1,722433.829,0.979,0.059,-0.063,-0.183,2269,0,139,2413,59,789,16,509,1,0.000,3,0,1.840,0.100,0.040,0.380,1.800,-0.146,-0.082,0.993,0.052,0.086,0.028,0.000,0.000,0.000,0.000,1,2,1,2,7,255,1020,200,959,1020
stim,975,975,1,722438.829,0.979,0.059,-0.063,-0.183,2263,0,149,2415,59,783,13,517,1,0.000,3,0,0.469,0.087,-0.160,-0.280,-0.340,-0.163,-0.105,0.995,-0.012,0.086,0.036,0.000,0.000,0.000,0.000,1,2,1,2,7,255,1020,200,964,1020
stim,975,975,1,722443.829,0.979,0.059,-0.063,-0.183,2267,0,151,2421,60,792,21,517,1,0.000,3,0,1.193,0.097,0.160,-0.480,-1.080,-0.152,-0.100,0.992,-0.012,-0.096,0.056,0.000,0.000,0.000,0.000,1,2,1,2,7,255,1020,200,969,1020
stim,975,975,1,722448.829,0.979,0.059,-0.063,-0.183,2269,0,143,2423,59,787,11,508,1,0.000,3,0,0.376,0.096,0.160,0.020,-0.340,-0.141,-0.084,0.985,-0.004,-0.096,0.056,0.000,0.000,0.000,0.000,1,2,1,2,7,255,1020,200,974,1020
stim,987,987,1,722453.829,0.979,0.059,-0.063,-0.183,2273,0,146,2409,59,781,12,507,1,0.000,3,0,0.420,0.074,-0.080,0.260,0.320,-0.140,-0.080,0.985,0.030,0.068,-0.044,0.000,0.000,0.000,0.000,1,2,1,2,7,255,1020,200,979,1020
stim,987,987,1,722458.829,0.979,0.059,-0.063,-0.183,2259,0,151,2423,62,793,20,521,1,0.000,3,0,0.492,0.074,-0.280,0.140,0.380,-0.146,-0.089,0.988,0.030,0.068,-0.044,0.000,0.000,0.000,0.000,1,2,1,2,7,255,1020,200,984,1020
stim,987,987,1,722463.829,0.979,0.059,-0.063,-0.183,2266,0,150,2411,57,791,11,509,1,0.000,3,0,0.284,0.014,-0.280,-0.040,0.020,-0.151,-0.096,0.990,0.008,0.012,0.000,0.000,0.000,0.000,0.000,1,2,1,2,7,255,1020,200,989,1020
stim,987,987,1,722468.829,0.979,0.059,-0.063,-0.183,2263,0,151,2412,58,791,17,510,1,0.000,3,0,0.284,0.044,-0.080,-0.160,-0.220,-0.151,-0.093,0.988,-0.014,-0.042,0.012,0.000,0.000,0.000,0.000,1,2,1,2,7,255,1020,200,994,1020
stim,1005,1005,1,722473.829,0.979,0.059,-0.063,-0.183,2267,0,149,2415,53,793,11,504,1,0.000,3,0,0.193,0.044,0.100,-0.040,-0.160,-0.148,-0.091,0.988,-0.014,-0.042,0.012,0.000,0.000,0.000,0.000,1,2,1,2,7,255,1020,200,999,1020
stim,1005,1005,1,722478.829,0.979,0.059,-0.063,-0.183,2268,0,150,2413,59,788,22,506,1,0.000,3,0,0.245,0.016,0.220,-0.040,-0.100,-0.147,-0.090,0.988,0.000,-0.016,0.000,0.000,0.000,0.000,0.000,1,2,1,2,7,255,1020,200,1004,1020
stim,1019,1019,1,722483.829,0.979,0.059,-0.063,-0.183,2263,0,143,2412,57,787,13,503,1,0.000,3,0,0.166,0.004,0.160,0.020,-0.040,-0.146,-0.090,0.987,0.000,-0.004,0.000,0.000,0.000,0.000,0.000,1,2,1,2,7,255,1020,200,1009,1020
stim,1019,1019,1,722488.829,0.979,0.059,-0.063,-0.183,2264,0,142,2420,52,789,16,505,1,0.000,3,0,0.104,0.006,0.100,0.020,0.020,-0.145,-0.088,0.988,0.006,0.002,-0.006,0.000,0.000,0.000,0.000,1,2,1,2,7,255,1020,200,1014,1020
stim,1051,1051,1,722493.829,0.979,0.059,-0.063,-0.183,2265,0,133,2417,54,792,11,516,1,0.000,3,0,0.147,0.029,0.040,0.020,0.140,-0.144,-0.086,0.988,0.016,0.024,-0.008,0.000,0.000,0.000,0.000,1,2,1,2,7,255,1020,200,1019,1020
stim,1051,1051,0,722498.829,0.979,0.059,-0.063,-0.183,2264,0,132,2411,53,793,19,505,1,0.000,3,0,0.173,0.030,0.100,0.020,0.140,-0.145,-0.088,0.987,0.018,0.024,-0.010,0.000,0.000,0.000,0.000,1,2,0,2,7,255,1020,200,4,1020
stim,1051,1051,0,722503.829,0.979,0.059,-0.063,-0.183,2260,0,125,2423,45,789,13,505,1,0.000,3,0,0.162,0.032,0.160,0.020,0.020,-0.145,-0.087,0.988,0.016,0.028,-0.010,0.000,0.000,0.000,0.000,1,2,0,2,7,255,1020,200,9,1020
stim,1051,1051,0,722508.830,0.979,0.059,-0.063,-0.183,2267,0,137,2408,51,783,16,509,1,0.000,3,0,0.143,0.023,0.100,0.020,-0.100,-0.146,-0.088,0.988,0.012,0.020,-0.006,0.000,0.000,0.000,0.000,1,2,0,2,7,255,1020,200,14,1020
stim,1052,1052,0,722513.829,0.979,0.059,-0.063,-0.183,2273,0,140,2423,46,793,13,520,1,0.000,3,0,0.166,0.020,-0.020,-0.040,-0.160,-0.147,-0.089,0.987,0.000,0.020,-0.006,0.000,0.000,0.000,0.000,1,2,0,2,7,255,1020,200,19,1020
stim,1052,1052,0,722518.829,0.979,0.059,-0.063,-0.183,2267,0,143,2427,56,789,13,512,1,0.000,3,0,0.180,0.004,-0.080,0.020,-0.160,-0.146,-0.091,0.987,0.000,0.004,-0.006,0.000,0.000,0.000,0.000,1,2,0,2,7,255,1020,200,24,1020
stim,1068,1068,0,722523.829,0.979,0.059,-0.063,-0.183,2264,0,143,2423,57,792,13,517,1,0.000,3,0,0.085,0.010,-0.080,0.020,0.020,-0.146,-0.090,0.987,0.010,0.000,-0.006,0.000,0.000,0.000,0.000,1,2,0,2,7,255,1020,200,29,1020
stim,1068,1068,0,722528.829,0.979,0.059,-0.063,-0.183,2265,0,147,2416,56,792,23,507,1,0.000,3,0,0.162,0.016,-0.080,0.020,0.140,-0.146,-0.090,0.988,0.016,0.000,-0.006,0.000,0.000,0.000,0.000,1,2,0,2,7,255,1020,200,34,1020
stim,1068,1068,0,722533.829,0.979,0.059,-0.063,-0.183,2271,0,149,2420,60,796,21,505,1,0.000,3,0,0.120,0.016,-0.080,-0.040,0.080,-0.148,-0.089,0.988,0.016,0.002,0.000,0.000,0.000,0.000,0.000,1,2,0,2,7,255,1020,200,39,1020
stim,1068,1068,0,722538.829,0.979,0.059,-0.063,-0.183,2277,0,138,2409,59,785,12,505,1,0.000,3,0,0.092,0.010,-0.080,0.020,-0.040,-0.149,-0.091,0.988,-0.010,0.002,0.002,0.000,0.000,0.000,0.000,1,2,0,2,7,255,1020,200,44,1020
stim,1068,1068,0,722543.829,0.979,0.059,-0.063,-0.183,2267,0,139,2423,59,789,17,511,1,0.000,3,0,0.290,0.016,0.220,-0.100,-0.160,-0.147,-0.091,0.988,-0.010,-0.012,0.004,0.000,0.000,0.000,0.000,1,2,0,2,7,255,1020,200,49,1020
stim,1068,1068,0,722548.829,0.979,0.059,-0.063,-0.183,2269,0,139,2421,58,790,16,507,1,0.000,3,0,0.582,0.014,0.580,-0.040,0.020,-0.143,-0.087,0.989,0.008,-0.012,0.004,0.000,0.000,0.000,0.000,1,2,0,2,7,255,1020,200,54,1020
stim,1068,1068,0,722553.829,0.979,0.059,-0.063,-0.183,2269,0,138,2453,56,787,17,505,1,0.000,3,0,0.540,0.011,0.280,0.140,0.440,-0.146,-0.090,0.988,0.010,0.004,0.002,0.000,0.000,0.000,0.000,1,2,0,2,7,255,1020,200,59,1020
stim,1083,1083,0,722558.829,0.979,0.059,-0.063,-0.183,2272,0,135,2411,53,792,19,521,1,0.000,3,0,0.787,0.011,-0.760,0.200,-0.040,-0.155,-0.101,0.989,0.010,0.004,0.002,0.000,0.000,0.000,0.000,1,2,0,2,7,255,1020,200,64,1020
stim,1083,1083,0,722563.829,0.979,0.059,-0.063,-0.183,2270,0,139,2424,59,789,17,510,1,0.000,3,0,1.518,0.061,-0.880,-0.480,-1.140,-0.150,-0.096,0.988,-0.008,-0.060,0.008,0.000,0.000,0.000,0.000,1,2,0,2,7,255,1020,200,69,1020
stim,1099,1099,0,722568.829,0.979,0.059,-0.063,-0.183,2270,0,148,2417,61,799,13,521,1,0.000,3,0,0.867,0.061,0.820,-0.280,-0.040,-0.126,-0.064,0.981,-0.008,-0.060,0.008,0.000,0.000,0.000,0.000,1,2,0,2,7,255,1020,200,74,1020
stim,1099,1099,0,722573.829,0.979,0.059,-0.063,-0.183,2268,0,147,2410,59,803,18,507,1,0.000,3,0,2.952,0.143,1.260,0.880,2.520,-0.138,-0.077,0.982,0.036,0.138,-0.076,0.000,0.000,0.000,0.000,1,2,0,2,7,255,1020,200,79,1020
stim,1115,1115,0,722578.829,0.979,0.059,-0.063,-0.183,2273,0,145,2423,56,791,19,509,1,0.000,3,0,0.977,0.143,-0.880,0.320,-0.280,-0.179,-0.128,1.000,0.036,0.138,-0.076,0.000,0.000,0.000,0.000,1,2,0,2,7,255,1020,200,84,1020
stim,1115,1115,0,722583.829,0.979,0.059,-0.063,-0.183,2283,0,142,2425,62,795,20,511,1,0.000,3,0,3.641,0.038,-0.940,-1.700,-3.080,-0.144,-0.093,0.990,0.036,-0.012,0.020,0.000,0.000,0.000,0.000,1,2,0,2,7,255,1020,200,89,1020
stim,1115,1115,0,722588.829,0.979,0.059,-0.063,-0.183,2287,0,145,2420,59,799,22,518,1,0.000,3,0,2.874,0.044,1.500,0.500,2.400,-0.115,-0.047,0.965,0.042,-0.012,0.020,0.000,0.000,0.000,0.000,1,2,0,2,7,255,1020,200,94,1020
stim,1115,1115,0,722593.829,0.979,0.059,-0.063,-0.183,2267,0,149,2416,57,802,15,515,1,0.000,3,0,1.945,0.044,0.160,1.660,1.000,-0.169,-0.115,1.000,0.042,-0.012,0.020,0.000,0.000,0.000,0.000,1,2,0,2,7,255,1020,200,99,1020
stim,1147,1147,0,722598.829,0.979,0.059,-0.063,-0.183,2281,0,155,2427,64,795,18,511,1,0.000,3,0,3.682,0.068,-1.240,-2.360,-2.540,-0.147,-0.098,1.003,0.046,-0.050,0.152,0.000,0.000,0.000,0.000,1,2,0,2,7,255,1020,200,104,1020
stim,1147,1147,0,722603.829,0.979,0.059,-0.063,-0.183,2269,0,142,2417,61,797,16,522,1,0.000,3,0,2.625,0.053,1.380,0.760,2.100,-0.137,-0.067,0.958,-0.018,-0.050,0.152,0.000,0.000,0.000,0.000,1,2,0,2,7,255,1020,200,109,1020
stim,1147,1147,0,722608.830,0.979,0.059,-0.063,-0.183,2273,0,148,2421,61,797,13,511,1,0.000,3,0,1.577,0.057,-0.220,1.000,-1.200,-0.155,-0.110,1.013,0.028,-0.050,0.152,0.000,0.000,0.000,0.000,1,2,0,2,7,255,1020,200,114,1020
stim,1147,1147,0,722613.829,0.979,0.059,-0.063,-0.183,2273,0,151,2420,63,796,21,509,1,0.000,3,0,2.356,0.168,-0.880,-2.000,0.880,-0.140,-0.073,0.979,0.000,0.168,-0.108,0.000,0.000,0.000,0.000,1,2,0,2,7,255,1020,200,119,1020
stim,1147,1147,0,722618.829,0.979,0.059,-0.063,-0.183,2278,0,151,2424,59,794,13,520,1,0.000,3,0,2.761,0.150,1.500,2.160,-0.840,-0.160,-0.101,0.982,0.000,-0.150,-0.030,0.000,0.000,0.000,0.000,1,2,0,2,7,255,1020,200,124,1020
stim,1147,1147,0,722623.829,0.979,0.059,-0.063,-0.183,2276,0,148,2409,67,792,13,523,1,0.000,3,0,2.407,0.158,-1.300,-2.000,0.320,-0.131,-0.081,1.004,0.000,0.158,-0.030,0.000,0.000,0.000,0.000,1,2,0,2,7,255,1020,200,129,1020
stim,1179,1179,0,722628.829,0.979,0.059,-0.063,-0.183,2279,0,151,2428,67,789,13,520,1,0.000,3,0,1.676,0.102,0.880,1.420,0.140,-0.164,-0.088,0.964,-0.076,-0.068,-0.030,0.000,0.000,0.000,0.000,1,2,0,2,7,255,1020,200,134,1020
stim,1179,1179,0,722633.829,0.979,0.059,-0.063,-0.183,2283,0,147,2414,71,795,20,509,1,0.000,3,0,1.152,0.134,-0.460,-0.840,-0.640,-0.133,-0.095,1.016,0.128,0.040,0.128,0.000,0.000,0.000,0.000,1,2,0,2,7,255,1020,200,139,1020
stim,1179,1179,0,722638.829,0.979,0.059,-0.063,-0.183,2268,0,153,2411,63,799,21,521,1,0.000,3,0,0.722,0.137,0.160,0.080,0.700,-0.155,-0.080,0.961,-0.134,0.030,-0.212,0.000,0.000,0.000,0.000,1,2,0,2,7,255,1020,200,144,1020
stim,1179,1179,0,722643.829,0.979,0.059,-0.063,-0.183,2276,0,148,2424,70,794,20,520,1,0.000,3,0,0.861,0.102,0.040,0.500,-0.700,-0.143,-0.101,1.008,0.098,0.030,0.194,0.000,0.000,0.000,0.000,1,2,0,2,7,255,1020,200,149,1020
stim,1179,1179,0,722648.829,0.979,0.059,-0.063,-0.182,2281,0,144,2429,61,807,17,512,1,0.000,3,0,0.965,0.055,-0.140,-0.900,0.320,-0.146,-0.078,0.976,-0.046,0.030,-0.132,0.000,0.000,0.000,0.000,1,2,0,2,7,255,1020,200,154,1020
stim,1179,1179,0,722653.829,0.979,0.059,-0.063,-0.182,2267,0,148,2412,70,795,19,516,1,0.000,3,0,1.069,0.060,0.100,1.060,-0.100,-0.151,-0.100,0.993,0.006,-0.060,0.060,0.000,0.000,0.000,0.000,1,2,0,2,7,255,1020,200,159,1020
stim,1179,1179,0,722658.829,0.979,0.059,-0.063,-0.182,2279,0,145,2427,62,791,11,509,1,0.000,3,0,1.174,0.092,-0.020,-1.140,-0.280,-0.140,-0.081,0.991,0.006,0.092,0.010,0.000,0.000,0.000,0.000,1,2,0,2,7,255,1020,200,164,1020
stim,1179,1179,0,722663.829,0.979,0.059,-0.063,-0.182,2269,0,151,2415,63,795,13,522,1,0.000,3,0,1.107,0.100,-0.020,1.060,0.320,-0.154,-0.099,0.979,0.006,-0.100,0.010,0.000,0.000,0.000,0.000,1,2,0,2,7,255,1020,200,169,1020
stim,1195,1195,0,722668.829,0.979,0.059,-0.063,-0.182,2273,0,145,2421,71,793,16,520,1,0.000,3,0,1.096,0.117,-0.020,-1.020,-0.400,-0.139,-0.079,0.997,0.040,0.110,0.010,0.000,0.000,0.000,0.000,1,2,0,2,7,255,1020,200,174,1020
stim,1195,1195,0,722673.829,0.979,0.059,-0.063,-0.182,2281,0,152,2425,63,793,19,511,1,0.000,3,0,0.975,0.081,0.220,0.940,0.140,-0.150,-0.096,0.979,-0.014,-0.080,-0.066,0.000,0.000,0.000,0.000,1,2,0,2,7,255,1020,200,179,1020
stim,1211,1211,0,722678.829,0.979,0.059,-0.063,-0.182,2263,0,149,2430,71,797,19,523,1,0.000,3,0,0.912,0.068,-0.340,-0.840,-0.100,-0.146,-0.083,0.994,-0.006,0.068,0.046,0.000,0.000,0.000,0.000,1,2,0,2,7,255,1020,200,184,1020
stim,1211,1211,0,722683.829,0.979,0.059,-0.063,-0.182,2277,0,152,2407,72,795,20,517,1,0.000,3,0,0.648,0.006,0.400,0.500,-0.100,-0.143,-0.091,0.985,-0.006,0.002,-0.032,0.000,0.000,0.000,0.000,1,2,0,2,7,255,1020,200,189,1020
stim,1227,1227,0,722688.829,0.979,0.059,-0.063,-0.182,2278,0,151,2421,67,795,21,516,1,0.000,3,0,0.513,0.006,-0.460,-0.160,-0.160,-0.152,-0.089,0.990,-0.006,0.002,0.028,0.000,0.000,0.000,0.000,1,2,0,2,7,255,1020,200,194,1020
stim,1227,1227,0,722693.829,0.979,0.059,-0.063,-0.182,2265,0,152,2424,68,797,19,523,1,0.000,3,0,0.205,0.038,0.160,-0.100,0.080,-0.141,-0.088,0.987,0.038,0.002,-0.022,0.000,0.000,0.000,0.000,1,2,0,2,7,255,1020,200,199,1020
stim,1259,1259,0,722698.829,0.979,0.059,-0.063,-0.182,2279,0,151,2419,63,799,18,518,1,0.000,3,0,0.345,0.028,0.100,0.320,0.080,-0.150,-0.088,0.989,-0.028,0.004,0.010,0.000,0.000,0.000,0.000,1,2,0,2,7,255,1020,200,204,1020
stim,1259,1259,0,722703.829,0.979,0.059,-0.063,-0.182,2285,0,151,2412,68,802,20,519,1,0.000,3,0,0.772,0.007,-0.460,-0.220,-0.580,-0.147,-0.091,0.991,0.006,0.004,0.010,0.000,0.000,0.000,0.000,1,2,0,2,7,255,1020,200,209,1020
stim,1259,1259,0,722708.830,0.979,0.059,-0.063,-0.182,2264,0,150,2429,71,797,19,512,1,0.000,3,0,0.461,0.007,0.220,0.140,0.380,-0.142,-0.088,0.984,0.006,0.004,0.010,0.000,0.000,0.000,0.000,1,2,0,2,7,255,1020,200,214,1020
stim,1259,1259,0,722713.829,0.979,0.059,-0.063,-0.182,2264,0,151,2437,69,803,16,524,1,0.000,3,0,0.162,0.019,-0.080,0.020,0.140,-0.152,-0.086,0.990,0.006,0.018,0.024,0.000,0.000,0.000,0.000,1,2,0,2,7,255,1020,200,219,1020
stim,1259,1259,0,722718.829,0.979,0.059,-0.063,-0.182,2285,0,147,2413,69,795,15,519,1,0.000,3,0,0.906,0.033,-0.340,0.020,-0.840,-0.146,-0.093,0.987,0.028,0.018,-0.012,0.000,0.000,0.000,0.000,1,2,0,2,7,255,1020,200,224,1020
stim,1259,1259,0,722723.829,0.979,0.059,-0.063,-0.182,2259,0,153,2424,68,801,18,506,1,0.000,3,0,0.440,0.033,0.220,0.020,0.380,-0.141,-0.088,0.984,0.028,0.018,-0.012,0.000,0.000,0.000,0.000,1,2,0,2,7,255,1020,200,229,1020
stim,1259,1259,0,722728.829,0.979,0.059,-0.063,-0.182,2277,0,153,2411,69,795,14,525,1,0.000,3,0,0.583,0.033,0.040,-0.040,0.580,-0.152,-0.086,0.992,0.028,0.018,-0.012,0.000,0.000,0.000,0.000,1,2,0,2,7,255,1020,200,234,1020
stim,1275,1275,0,722733.829,0.979,0.059,-0.063,-0.182,2271,0,143,2405,71,803,22,517,1,0.000,3,0,0.734,0.018,-0.220,0.020,-0.700,-0.148,-0.090,0.990,-0.004,0.018,0.022,0.000,0.000,0.000,0.000,1,2,0,2,7,255,1020,200,239,1020
stim,1275,1275,0,722738.829,0.979,0.059,-0.063,-0.182,2274,0,151,2409,71,791,12,520,1,0.000,3,0,0.281,0.007,-0.020,0.020,-0.280,-0.141,-0.092,0.982,-0.004,-0.006,0.022,0.000,0.000,0.000,0.000,1,2,0,2,7,255,1020,200,244,1020
stim,1275,1275,0,722743.829,0.979,0.059,-0.063,-0.182,2275,0,152,2421,67,797,24,519,1,0.000,3,0,0.944,0.007,0.340,-0.040,0.880,-0.147,-0.088,0.988,-0.004,-0.006,-0.004,0.000,0.000,0.000,0.000,1,2,0,2,7,255,1020,200,249,1020
stim,1275,1275,0,722748.829,0.979,0.059,-0.063,-0.182,2267,0,154,2410,71,796,23,523,1,0.000,3,0,0.259,0.018,0.160,-0.040,0.200,-0.154,-0.085,0.993,-0.004,0.018,-0.004,0.000,0.000,0.000,0.000,1,2,0,2,7,255,1020,200,254,1020
stim,1292,1292,0,722753.829,0.979,0.059,-0.063,-0.182,2279,0,145,2424,64,796,13,520,1,0.000,3,0,0.779,0.018,-0.340,-0.040,-0.700,-0.146,-0.095,0.987,-0.004,0.018,-0.004,0.000,0.000,0.000,0.000,1,2,0,2,7,255,1020,200,259,1020
stim,1292,1292,0,722758.829,0.979,0.059,-0.063,-0.182,2283,0,153,2415,63,792,21,518,1,0.000,3,0,0.098,0.047,0.040,-0.040,0.080,-0.140,-0.095,0.981,0.034,-0.032,-0.010,0.000,0.000,0.000,0.000,1,2,0,2,7,255,1020,200,264,1020
stim,1292,1292,0,722763.829,0.979,0.059,-0.063,-0.182,2270,0,151,2423,69,794,16,519,1,0.000,3,0,0.949,0.047,0.640,-0.040,0.700,-0.149,-0.084,0.988,0.034,-0.032,-0.010,0.000,0.000,0.000,0.000,1,2,0,2,7,255,1020,200,269,1020
stim,1292,1292,0,722768.829,0.979,0.059,-0.063,-0.182,2279,0,155,2415,63,795,21,511,1,0.000,3,0,0.300,0.050,0.280,-0.040,-0.100,-0.152,-0.084,0.995,-0.032,0.038,0.000,0.000,0.000,0.000,0.000,1,2,0,2,7,255,1020,200,274,1020
stim,1309,1309,0,722773.829,0.979,0.059,-0.063,-0.182,2268,0,151,2403,69,796,11,510,1,0.000,3,0,0.785,0.050,-0.520,-0.100,-0.580,-0.144,-0.094,0.989,-0.032,0.038,0.006,0.000,0.000,0.000,0.000,1,2,0,2,7,255,1020,200,279,1020
stim,1309,1309,0,722778.829,0.979,0.059,-0.063,-0.182,2275,0,153,2420,72,791,18,509,1,0.000,3,0,0.450,0.058,-0.220,-0.100,0.380,-0.141,-0.098,0.981,0.048,-0.032,0.006,0.000,0.000,0.000,0.000,1,2,0,2,7,255,1020,200,284,1020
stim,1309,1309,0,722783.829,0.979,0.059,-0.063,-0.182,2263,0,153,2437,69,793,16,510,1,0.000,3,0,0.926,0.058,0.520,-0.100,0.760,-0.148,-0.087,0.985,0.048,-0.032,-0.030,0.000,0.000,0.000,0.000,1,2,0,2,7,255,1020,200,289,1020
stim,1309,1309,0,722788.829,0.979,0.058,-0.063,-0.182,2271,0,148,2425,70,797,18,523,1,0.000,3,0,0.754,0.029,0.700,0.020,-0.280,-0.152,-0.081,0.993,-0.024,0.016,-0.030,0.000,0.000,0.000,0.000,1,2,0,2,7,255,1020,200,294,1020
stim,1323,1323,0,722793.829,0.979,0.058,-0.063,-0.182,2277,0,147,2411,70,803,12,521,1,0.000,3,0,1.024,0.057,0.040,0.080,-1.020,-0.144,-0.086,0.994,-0.024,0.052,0.050,0.000,0.000,0.000,0.000,1,2,0,2,7,255,1020,200,299,1020
stim,1323,1323,0,722798.829,0.979,0.058,-0.063,-0.182,2265,0,149,2427,72,803,17,523,1,0.000,3,0,0.491,0.059,-0.460,-0.100,0.140,-0.137,-0.096,0.988,0.028,0.052,0.050,0.000,0.000,0.000,0.000,1,2,0,2,7,255,1020,200,304,1020
stim,1356,1356,0,722803.829,0.979,0.058,-0.063,-0.182,2276,0,153,2423,71,801,17,510,1,0.000,3,0,1.456,0.038,-0.280,-0.160,1.420,-0.146,-0.096,0.983,0.028,-0.026,-0.008,0.000,0.000,0.000,0.000,1,2,0,2,7,255,1020,200,309,1020
stim,1356,1356,0,722808.829,0.979,0.058,-0.063,-0.182,2277,0,144,2437,71,797,18,521,1,0.000,3,0,0.785,0.038,0.340,-0.100,0.700,-0.157,-0.086,0.986,0.028,-0.026,-0.010,0.000,0.000,0.000,0.000,1,2,0,2,7,255,1020,200,314,1020
stim,1356,1356,0,722813.829,0.979,0.058,-0.063,-0.182,2263,0,149,2427,67,795,13,525,1,0.000,3,0,1.228,0.076,0.580,0.080,-1.080,-0.153,-0.082,0.990,-0.076,-0.008,-0.010,0.000,0.000,0.000,0.000,1,2,0,2,7,255,1020,200,319,1020
stim,1356,1356,0,722818.829,0.979,0.058,-0.063,-0.182,2269,0,151,2437,69,792,19,523,1,0.000,3,0,1.486,0.090,0.340,0.140,-1.440,-0.138,-0.087,0.991,-0.076,0.048,0.010,0.000,0.000,0.000,0.000,1,2,0,2,7,255,1020,200,324,1020
stim,1356,1356,0,722823.829,0.979,0.058,-0.063,-0.182,2264,0,151,2430,73,795,16,523,1,0.000,3,0,0.247,0.092,-0.140,-0.040,0.200,-0.135,-0.094,0.990,0.078,0.048,0.010,0.000,0.000,0.000,0.000,1,2,0,2,7,255,1020,200,329,1020
stim,1356,1356,0,722828.829,0.979,0.058,-0.063,-0.182,2263,0,151,2413,69,796,17,527,1,0.000,3,0,1.745,0.078,-0.460,-0.100,1.680,-0.146,-0.093,0.987,0.078,0.000,0.008,0.000,0.000,0.000,0.000,1,2,0,2,7,255,1020,200,334,1020
stim,1373,1373,0,722833.829,0.979,0.058,-0.063,-0.182,2272,0,148,2413,69,795,16,521,1,0.000,3,0,0.956,0.033,-0.140,-0.100,0.940,-0.158,-0.087,0.985,0.022,-0.024,-0.006,0.000,0.000,0.000,0.000,1,2,0,2,7,255,1020,200,339,1020
stim,1373,1373,0,722838.829,0.979,0.058,-0.063,-0.182,2285,0,148,2428,67,789,16,521,1,0.000,3,0,0.910,0.084,0.340,0.080,-0.840,-0.155,-0.086,0.985,-0.080,-0.024,-0.018,0.000,0.000,0.000,0.000,1,2,0,2,7,255,1020,200,344,1020
stim,1373,1373,0,722843.829,0.979,0.058,-0.063,-0.182,2283,0,151,2418,69,793,18,512,1,0.000,3,0,1.477,0.080,0.520,0.080,-1.380,-0.142,-0.089,0.988,-0.080,-0.004,-0.018,0.000,0.000,0.000,0.000,1,2,0,2,7,255,1020,200,349,1020
stim,1373,1373,0,722848.829,0.979,0.058,-0.063,-0.182,2280,0,151,2425,70,795,21,511,1,0.000,3,0,0.312,0.051,0.220,0.020,-0.220,-0.138,-0.090,0.992,0.048,0.016,-0.010,0.000,0.000,0.000,0.000,1,2,0,2,7,255,1020,200,354,1020
stim,1387,1387,0,722853.829,0.979,0.058,-0.063,-0.182,2281,0,148,2425,70,797,19,524,1,0.000,3,0,0.924,0.051,-0.280,-0.040,0.880,-0.145,-0.089,0.990,0.048,0.016,0.016,0.000,0.000,0.000,0.000,1,2,0,2,7,255,1020,200,359,1020
stim,1387,1387,0,722858.829,0.979,0.058,-0.063,-0.182,2267,0,151,2422,62,790,21,517,1,0.000,3,0,0.807,0.028,-0.400,-0.040,0.700,-0.152,-0.088,0.987,0.024,0.014,0.016,0.000,0.000,0.000,0.000,1,2,0,2,7,255,1020,200,364,1020
stim,1405,1405,0,722863.829,0.979,0.058,-0.063,-0.182,2276,0,151,2425,73,794,13,527,1,0.000,3,0,0.316,0.038,-0.140,-0.040,-0.280,-0.151,-0.090,0.985,-0.038,-0.006,-0.006,0.000,0.000,0.000,0.000,1,2,0,2,7,255,1020,200,369,1020
stim,1405,1405,0,722868.829,0.979,0.058,-0.063,-0.182,2271,0,150,2420,62,797,21,511,1,0.000,3,0,0.755,0.042,0.400,0.020,-0.640,-0.146,-0.091,0.986,-0.038,-0.018,-0.022,0.000,0.000,0.000,0.000,1,2,0,2,7,255,1020,200,374,1020
stim,1405,1405,0,722873.829,0.979,0.058,-0.063,-0.182,2269,0,151,2420,68,797,19,520,1,0.000,3,0,0.457,0.024,0.400,0.020,-0.220,-0.142,-0.089,0.991,0.016,-0.018,-0.022,0.000,0.000,0.000,0.000,1,2,0,2,7,255,1020,200,379,1020
stim,1405,1405,0,722878.829,0.979,0.058,-0.063,-0.182,2266,0,152,2427,64,805,17,527,1,0.000,3,0,0.275,0.027,-0.080,-0.040,0.260,-0.145,-0.088,0.992,0.018,0.020,0.018,0.000,0.000,0.000,0.000,1,2,0,2,7,255,1020,200,384,1020
stim,1405,1405,0,722883.829,0.979,0.058,-0.063,-0.182,2277,0,149,2423,69,793,14,523,1,0.000,3,0,0.522,0.027,-0.400,-0.100,0.320,-0.147,-0.088,0.988,0.018,0.020,0.018,0.000,0.000,0.000,0.000,1,2,0,2,7,255,1020,200,389,1020
stim,1405,1405,0,722888.829,0.979,0.058,-0.063,-0.182,2275,0,151,2426,64,797,23,512,1,0.000,3,0,0.224,0.014,-0.220,-0.040,0.020,-0.149,-0.090,0.986,-0.008,0.012,0.000,0.000,0.000,0.000,0.000,1,2,0,2,7,255,1020,200,394,1020
stim,1452,1452,0,722893.829,0.979,0.058,-0.063,-0.182,2277,0,152,2420,71,797,19,527,1,0.000,3,0,0.273,0.014,0.160,0.020,-0.220,-0.147,-0.090,0.986,-0.008,-0.012,-0.018,0.000,0.000,0.000,0.000,1,2,0,2,7,255,1020,200,399,1020
stim,1452,1452,0,722898.829,0.979,0.059,-0.063,-0.182,2279,0,152,2439,69,794,16,523,1,0.000,3,0,0.358,0.013,0.280,-0.040,-0.220,-0.146,-0.089,0.989,0.004,-0.012,-0.018,0.000,0.000,0.000,0.000,1,2,0,2,7,255,1020,200,404,1020
stim,1471,1471,0,722903.830,0.979,0.059,-0.063,-0.182,2270,0,144,2421,73,797,17,527,1,0.000,3,0,0.170,0.009,0.160,-0.040,-0.040,-0.146,-0.089,0.991,0.008,0.004,0.006,0.000,0.000,0.000,0.000,1,2,0,2,7,255,1020,200,409,1020
stim,1471,1471,0,722908.829,0.979,0.059,-0.063,-0.182,2266,0,147,2415,70,792,23,520,1,0.000,3,0,0.143,0.011,-0.140,0.020,0.020,-0.147,-0.088,0.989,0.008,0.008,0.006,0.000,0.000,0.000,0.000,1,2,0,2,7,255,1020,200,414,1020
stim,1471,1471,0,722913.829,0.979,0.059,-0.063,-0.182,2283,0,148,2415,69,793,18,523,1,0.000,3,0,0.224,0.008,-0.220,-0.040,0.020,-0.147,-0.090,0.986,-0.002,0.008,0.006,0.000,0.000,0.000,0.000,1,2,0,2,7,255,1020,200,419,1020
stim,1471,1471,0,722918.829,0.979,0.059,-0.063,-0.182,2267,0,149,2427,76,795,13,520,1,0.000,3,0,0.049,0.008,-0.020,0.020,-0.040,-0.148,-0.091,0.987,-0.002,-0.008,-0.010,0.000,0.000,0.000,0.000,1,2,0,2,7,255,1020,200,424,1020
stim,1471,1471,0,722923.829,0.979,0.059,-0.063,-0.182,2273,0,147,2420,68,803,21,511,1,0.000,3,0,0.245,0.008,0.220,-0.040,-0.100,-0.147,-0.087,0.988,-0.002,-0.008,-0.010,0.000,0.000,0.000,0.000,1,2,0,2,7,255,1020,200,429,1020
stim,1471,1471,0,722928.829,0.979,0.059,-0.063,-0.182,2269,0,151,2419,73,795,12,519,1,0.000,3,0,0.227,0.016,0.160,0.020,-0.160,-0.146,-0.087,0.989,-0.002,0.016,-0.004,0.000,0.000,0.000,0.000,1,2,0,2,7,255,1020,200,434,1020
stim,1484,1484,0,722933.829,0.979,0.059,-0.063,-0.182,2267,0,153,2421,75,796,17,521,1,0.000,3,0,0.134,0.016,-0.080,-0.040,-0.100,-0.145,-0.089,0.990,0.000,0.016,0.008,0.000,0.000,0.000,0.000,1,2,0,2,7,255,1020,200,439,1020
stim,1484,1484,0,722938.829,0.979,0.059,-0.063,-0.182,2277,0,147,2431,73,793,18,521,1,0.000,3,0,0.222,0.016,-0.220,0.020,0.020,-0.146,-0.090,0.987,0.008,0.014,0.008,0.000,0.000,0.000,0.000,1,2,0,2,7,255,1020,200,444,1020
stim,1484,1484,0,722943.829,0.979,0.059,-0.063,-0.182,2267,0,152,2411,64,796,21,527,1,0.000,3,0,0.049,0.008,-0.020,-0.040,0.020,-0.148,-0.090,0.987,0.008,-0.002,-0.008,0.000,0.000,0.000,0.000,1,2,0,2,7,255,1020,200,449,1020
stim,1484,1484,0,722948.830,0.979,0.059,-0.063,-0.182,2274,0,147,2427,72,796,16,520,1,0.000,3,0,0.115,0.006,0.040,-0.040,-0.100,-0.147,-0.089,0.987,-0.006,-0.002,-0.010,0.000,0.000,0.000,0.000,1,2,0,2,7,255,1020,200,454,1020
stim,1484,1484,0,722953.829,0.979,0.059,-0.063,-0.182,2265,0,149,2424,73,805,22,524,1,0.000,3,0,0.193,0.006,0.100,-0.040,-0.160,-0.146,-0.089,0.987,-0.006,0.002,-0.010,0.000,0.000,0.000,0.000,1,2,0,2,7,255,1020,200,459,1020
stim,1484,1484,0,722958.829,0.979,0.059,-0.063,-0.182,2271,0,149,2443,70,791,18,523,1,0.000,3,0,0.049,0.007,-0.020,0.020,-0.040,-0.146,-0.088,0.989,0.004,0.006,-0.008,0.000,0.000,0.000,0.000,1,2,0,2,7,255,1020,200,464,1020
stim,1499,1499,0,722963.829,0.979,0.059,-0.063,-0.182,2278,0,148,2425,63,801,13,525,1,0.000,3,0,0.085,0.010,-0.080,0.020,0.020,-0.145,-0.089,0.987,0.008,0.006,-0.008,0.000,0.000,0.000,0.000,1,2,0,2,7,255,1020,200,469,1020
stim,1499,1499,0,722968.829,0.979,0.059,-0.063,-0.182,2283,0,148,2425,70,793,18,522,1,0.000,3,0,0.162,0.010,-0.080,0.020,0.140,-0.146,-0.089,0.987,0.008,0.006,-0.008,0.000,0.000,0.000,0.000,1,2,0,2,7,255,1020,200,474,1020
stim,1515,1515,0,722973.829,0.979,0.059,-0.063,-0.182,2279,0,154,2421,69,795,21,519,1,0.000,3,0,0.049,0.008,-0.020,-0.040,0.020,-0.146,-0.090,0.987,0.008,0.002,-0.008,0.000,0.000,0.000,0.000,1,2,0,2,7,255,1020,200,479,1020
stim,1515,1515,0,722978.829,0.979,0.059,-0.063,-0.182,2283,0,148,2415,69,798,19,512,1,0.000,3,0,0.069,0.004,0.040,-0.040,-0.040,-0.146,-0.088,0.988,0.004,0.002,-0.006,0.000,0.000,0.000,0.000,1,2,0,2,7,255,1020,200,484,1020
stim,1515,1515,0,722983.829,0.979,0.059,-0.063,-0.182,2286,0,147,2425,72,805,20,520,1,0.000,3,0,0.060,0.004,-0.020,-0.040,-0.040,-0.147,-0.089,0.988,0.004,0.002,-0.006,0.000,0.000,0.000,0.000,1,2,0,2,7,255,1020,200,489,1020
stim,1515,1515,0,722988.829,0.979,0.059,-0.063,-0.182,2283,0,157,2413,75,795,17,523,1,0.000,3,0,0.049,0.007,-0.020,-0.040,0.020,-0.146,-0.089,0.988,0.004,0.006,0.000,0.000,0.000,0.000,0.000,1,2,0,2,7,255,1020,200,494,1020
stim,1531,1531,0,722993.829,0.979,0.059,-0.063,-0.182,2277,0,151,2424,73,797,16,524,1,0.000,3,0,0.049,0.003,-0.020,-0.040,0.020,-0.147,-0.089,0.987,0.002,0.002,0.000,0.000,0.000,0.000,0.000,1,2,0,2,7,255,1020,200,499,1020
stim,1531,1531,0,722998.829,0.979,0.059,-0.063,-0.182,2279,0,148,2421,72,805,20,523,1,0.000,3,0,0.049,0.008,-0.020,-0.040,0.020,-0.146,-0.090,0.987,0.008,-0.002,-0.012,0.000,0.000,0.000,0.000,1,2,0,2,7,255,1020,200,504,1020
stim,1563,1563,0,723003.829,0.979,0.059,-0.063,-0.182,2276,0,148,2413,75,795,17,512,1,0.000,3,0,0.060,0.002,0.040,0.020,-0.040,-0.147,-0.089,0.987,0.000,-0.002,-0.012,0.000,0.000,0.000,0.000,1,2,0,2,7,255,1020,200,509,1020
stim,1563,1563,0,723008.829,0.979,0.059,-0.063,-0.182,2269,0,151,2425,76,803,11,521,1,0.000,3,0,0.104,0.006,0.100,0.020,0.020,-0.146,-0.089,0.987,0.006,0.000,-0.008,0.000,0.000,0.000,0.000,1,2,0,2,7,255,1020,200,514,1020
stim,1563,1563,0,723013.829,0.979,0.059,-0.063,-0.182,2272,0,153,2422,72,795,17,517,1,0.000,3,0,0.104,0.008,0.100,0.020,0.020,-0.146,-0.089,0.989,0.006,0.006,-0.006,0.000,0.000,0.000,0.000,1,2,0,2,7,255,1020,200,519,1020
stim,1563,1563,0,723018.829,0.979,0.059,-0.063,-0.182,2267,0,151,2435,75,803,15,512,1,0.000,3,0,0.060,0.012,0.040,-0.040,0.020,-0.146,-0.089,0.989,0.010,0.006,0.006,0.000,0.000,0.000,0.000,1,2,0,2,7,255,1020,200,524,1020
stim,1563,1563,0,723023.829,0.979,0.059,-0.063,-0.182,2269,0,151,2411,73,793,15,523,1,0.000,3,0,0.060,0.012,0.040,-0.040,0.020,-0.146,-0.090,0.988,0.010,0.006,0.006,0.000,0.000,0.000,0.000,1,2,0,2,7,255,1020,200,529,1020
stim,1563,1563,0,723028.829,0.979,0.059,-0.063,-0.182,2269,0,152,2423,71,805,18,521,1,0.000,3,0,0.110,0.010,0.100,-0.040,0.020,-0.147,-0.090,0.987,0.010,0.002,0.002,0.000,0.000,0.000,0.000,1,2,0,2,7,255,1020,200,534,1020
stim,1563,1563,0,723033.829,0.979,0.059,-0.063,-0.182,2267,0,153,2425,71,796,19,521,1,0.000,3,0,0.060,0.010,0.040,-0.040,0.020,-0.146,-0.090,0.988,0.010,0.000,-0.004,0.000,0.000,0.000,0.000,1,2,0,2,7,255,1020,200,539,1020
stim,1563,1563,0,723038.829,0.979,0.059,-0.063,-0.182,2275,0,149,2427,73,801,18,519,1,0.000,3,0,0.049,0.002,0.040,0.020,0.020,-0.146,-0.089,0.988,0.002,0.000,-0.004,0.000,0.000,0.000,0.000,1,2,0,2,7,255,1020,200,544,1020
stim,1579,1579,0,723043.829,0.980,0.059,-0.063,-0.182,2267,0,152,2419,73,797,11,527,1,0.000,3,0,0.104,0.004,0.100,0.020,0.020,-0.146,-0.090,0.987,0.004,0.000,-0.004,0.000,0.000,0.000,0.000,1,2,0,2,7,255,1020,200,549,1020
stim,1579,1579,0,723048.830,0.980,0.059,-0.063,-0.182,2287,0,151,2421,76,799,20,511,1,0.000,3,0,0.110,0.004,0.100,-0.040,0.020,-0.146,-0.090,0.987,0.004,-0.002,-0.006,0.000,0.000,0.000,0.000,1,2,0,2,7,255,1020,200,554,1020
stim,1579,1579,0,723053.829,0.980,0.059,-0.063,-0.182,2269,0,152,2410,73,804,16,527,1,0.000,3,0,0.110,0.004,0.100,-0.040,0.020,-0.146,-0.089,0.987,0.004,-0.002,-0.006,0.000,0.000,0.000,0.000,1,2,0,2,7,255,1020,200,559,1020
stim,1579,1579,0,723058.829,0.980,0.059,-0.063,-0.182,2283,0,144,2417,71,796,16,521,1,0.000,3,0,0.166,0.004,0.160,-0.040,0.020,-0.147,-0.089,0.987,0.004,0.000,-0.006,0.000,0.000,0.000,0.000,1,2,0,2,7,255,1020,200,564,1020
stim,1595,1595,0,723063.829,0.980,0.059,-0.063,-0.182,2268,0,150,2425,73,793,16,527,1,0.000,3,0,0.110,0.007,0.100,-0.040,0.020,-0.146,-0.089,0.987,0.006,0.004,-0.008,0.000,0.000,0.000,0.000,1,2,0,2,7,255,1020,200,569,1020
stim,1595,1595,0,723068.829,0.980,0.059,-0.063,-0.182,2271,0,150,2419,69,803,12,527,1,0.000,3,0,0.134,0.007,0.100,-0.040,0.080,-0.146,-0.089,0.988,0.006,0.004,-0.006,0.000,0.000,0.000,0.000,1,2,0,2,7,255,1020,200,574,1020
stim,1611,1611,0,723073.829,0.980,0.059,-0.063,-0.182,2277,0,151,2423,63,803,21,511,1,0.000,3,0,0.134,0.007,0.100,-0.040,0.080,-0.146,-0.089,0.988,0.006,0.004,-0.004,0.000,0.000,0.000,0.000,1,2,0,2,7,255,1020,200,579,1020
stim,1611,1611,0,723078.829,0.980,0.059,-0.063,-0.182,2278,0,148,2416,71,797,16,523,1,0.000,3,0,0.134,0.006,0.100,-0.040,0.080,-0.147,-0.090,0.988,0.004,0.004,-0.002,0.000,0.000,0.000,0.000,1,2,0,2,7,255,1020,200,584,1020
stim,1611,1611,0,723083.829,0.980,0.059,-0.063,-0.182,2265,0,153,2423,71,796,19,517,1,0.000,3,0,0.130,0.004,0.100,0.020,0.080,-0.146,-0.090,0.988,0.004,0.000,-0.002,0.000,0.000,0.000,0.000,1,2,0,2,7,255,1020,200,589,1020
stim,1611,1611,0,723088.829,0.980,0.059,-0.063,-0.182,2281,0,150,2425,70,797,15,520,1,0.000,3,0,0.216,0.002,0.160,-0.040,0.140,-0.146,-0.089,0.988,0.002,0.000,-0.002,0.000,0.000,0.000,0.000,1,2,0,2,7,255,1020,200,594,1020
stim,1611,1611,0,723093.829,0.980,0.059,-0.063,-0.182,2281,0,146,2438,72,797,22,524,1,0.000,3,0,0.134,0.002,0.100,-0.040,0.080,-0.146,-0.090,0.986,0.002,0.000,-0.002,0.000,0.000,0.000,0.000,1,2,0,2,7,255,1020,200,599,1020
stim,1659,1659,0,723098.829,0.980,0.059,-0.063,-0.182,2254,0,155,2420,68,807,19,523,1,0.000,3,0,0.177,0.006,0.100,-0.040,0.140,-0.146,-0.089,0.987,0.002,0.006,-0.008,0.000,0.000,0.000,0.000,1,2,0,2,7,255,1020,200,604,1020
stim,1659,1659,0,723103.829,0.980,0.059,-0.063,-0.182,2265,0,146,2421,76,801,18,523,1,0.000,3,0,0.214,0.002,0.160,0.020,0.140,-0.147,-0.090,0.989,0.002,0.000,-0.008,0.000,0.000,0.000,0.000,1,2,0,2,7,255,1020,200,609,1020
stim,1659,1659,0,723108.830,0.980,0.059,-0.063,-0.182,2270,0,148,2437,73,795,22,511,1,0.000,3,0,0.180,0.000,0.160,0.020,0.080,-0.147,-0.090,0.988,0.000,0.000,0.004,0.000,0.000,0.000,0.000,1,2,0,2,7,255,1020,200,614,1020
stim,1659,1659,0,723113.829,0.980,0.059,-0.063,-0.182,2268,0,150,2411,77,797,20,527,1,0.000,3,0,0.098,0.000,0.040,-0.040,0.080,-0.147,-0.089,0.988,0.000,0.000,0.004,0.000,0.000,0.000,0.000,1,2,0,2,7,255,1020,200,619,1020
stim,1659,1659,0,723118.829,0.980,0.059,-0.063,-0.182,2281,0,157,2427,77,805,17,522,1,0.000,3,0,0.166,0.002,0.160,-0.040,0.020,-0.146,-0.089,0.987,0.000,0.002,0.004,0.000,0.000,0.000,0.000,1,2,0,2,7,255,1020,200,624,1020
stim,1659,1659,0,723123.829,0.980,0.059,-0.063,-0.182,2277,0,145,2424,67,802,20,522,1,0.000,3,0,0.130,0.004,0.100,0.020,0.080,-0.146,-0.089,0.987,0.002,0.004,-0.006,0.000,0.000,0.000,0.000,1,2,0,2,7,255,1020,200,629,1020
stim,1675,1675,0,723128.829,0.980,0.059,-0.063,-0.182,2279,0,147,2418,63,805,17,524,1,0.000,3,0,0.134,0.010,0.100,-0.040,0.080,-0.147,-0.088,0.987,0.002,0.010,-0.008,0.000,0.000,0.000,0.000,1,2,0,2,7,255,1020,200,634,1020
stim,1675,1675,0,723133.829,0.980,0.059,-0.063,-0.182,2262,0,147,2423,73,797,21,521,1,0.000,3,0,0.092,0.012,0.040,0.020,0.080,-0.148,-0.089,0.988,-0.006,0.010,-0.008,0.000,0.000,0.000,0.000,1,2,0,2,7,255,1020,200,639,1020
stim,1675,1675,0,723138.829,0.980,0.059,-0.063,-0.182,2267,0,146,2423,71,793,13,510,1,0.000,3,0,0.098,0.012,0.040,-0.040,0.080,-0.147,-0.088,0.988,-0.006,0.010,-0.002,0.000,0.000,0.000,0.000,1,2,0,2,7,255,1020,200,644,1020
stim,1675,1675,0,723143.829,0.980,0.059,-0.063,-0.182,2269,0,152,2415,70,794,16,527,1,0.000,3,0,0.060,0.013,0.040,-0.040,0.020,-0.146,-0.088,0.988,-0.006,0.012,-0.002,0.000,0.000,0.000,0.000,1,2,0,2,7,255,1020,200,649,1020
stim,1676,1676,0,723148.829,0.980,0.059,-0.063,-0.182,2277,0,148,2422,71,800,15,522,1,0.000,3,0,0.098,0.013,0.040,-0.040,0.080,-0.147,-0.088,0.988,-0.006,0.012,-0.002,0.000,0.000,0.000,0.000,1,2,0,2,7,255,1020,200,654,1020
stim,1676,1676,0,723153.829,0.980,0.059,-0.063,-0.182,2283,0,153,2423,71,794,17,521,1,0.000,3,0,0.049,0.013,0.040,0.020,0.020,-0.148,-0.089,0.988,-0.006,0.012,-0.002,0.000,0.000,0.000,0.000,1,2,0,2,7,255,1020,200,659,1020
stim,1691,1691,0,723158.829,0.980,0.059,-0.063,-0.182,2265,0,150,2419,61,795,22,521,1,0.000,3,0,0.049,0.013,0.040,0.020,0.020,-0.146,-0.088,0.987,-0.006,0.012,-0.002,0.000,0.000,0.000,0.000,1,2,0,2,7,255,1020,200,664,1020
stim,1691,1691,0,723163.829,0.980,0.059,-0.063,-0.182,2265,0,148,2427,75,797,20,525,1,0.000,3,0,0.049,0.014,0.040,0.020,0.020,-0.146,-0.088,0.989,0.002,0.014,0.000,0.000,0.000,0.000,0.000,1,2,0,2,7,255,1020,200,669,1020
stim,1691,1691,0,723168.829,0.980,0.059,-0.063,-0.182,2265,0,151,2423,71,797,17,519,1,0.000,3,0,0.049,0.014,-0.020,-0.040,0.020,-0.146,-0.090,0.988,0.002,0.014,0.004,0.000,0.000,0.000,0.000,1,2,0,2,7,255,1020,200,674,1020
stim,1691,1691,0,723173.829,0.980,0.059,-0.063,-0.182,2281,0,153,2419,71,805,22,525,1,0.000,3,0,0.049,0.007,0.040,0.020,0.020,-0.146,-0.089,0.988,0.004,0.006,0.004,0.000,0.000,0.000,0.000,1,2,0,2,7,255,1020,200,679,1020
stim,1707,1707,0,723178.829,0.980,0.059,-0.063,-0.182,2280,0,151,2419,75,797,18,521,1,0.000,3,0,0.110,0.007,0.100,0.020,-0.040,-0.146,-0.089,0.988,0.004,0.006,0.002,0.000,0.000,0.000,0.000,1,2,0,2,7,255,1020,200,684,1020
stim,1707,1707,0,723183.829,0.980,0.059,-0.063,-0.182,2267,0,149,2431,71,797,19,524,1,0.000,3,0,0.060,0.006,0.040,0.020,-0.040,-0.146,-0.089,0.988,0.002,0.006,-0.002,0.000,0.000,0.000,0.000,1,2,0,2,7,255,1020,200,689,1020
stim,1723,1723,0,723188.829,0.980,0.059,-0.063,-0.182,2271,0,149,2419,71,795,18,529,1,0.000,3,0,0.060,0.006,0.040,-0.040,0.020,-0.146,-0.090,0.987,0.002,0.006,-0.002,0.000,0.000,0.000,0.000,1,2,0,2,7,255,1020,200,694,1020
stim,1723,1723,0,723193.829,0.980,0.059,-0.063,-0.182,2265,0,147,2439,75,808,19,512,1,0.000,3,0,0.060,0.006,0.040,-0.040,0.020,-0.146,-0.089,0.989,0.002,0.006,-0.002,0.000,0.000,0.000,0.000,1,2,0,2,7,255,1020,200,699,1020
stim,1756,1756,0,723198.829,0.980,0.059,-0.063,-0.182,2275,0,145,2427,71,803,21,522,1,0.000,3,0,0.049,0.004,-0.020,0.020,-0.040,-0.147,-0.089,0.988,0.002,0.004,0.004,0.000,0.000,0.000,0.000,1,2,0,2,7,255,1020,200,704,1020
stim,1756,1756,0,723203.829,0.980,0.059,-0.063,-0.182,2266,0,152,2425,69,799,22,521,1,0.000,3,0,0.060,0.006,0.040,-0.040,0.020,-0.146,-0.088,0.988,-0.002,0.006,0.004,0.000,0.000,0.000,0.000,1,2,0,2,7,255,1020,200,709,1020
stim,1756,1756,0,723208.829,0.980,0.059,-0.063,-0.182,2267,0,147,2429,69,801,20,530,1,0.000,3,0,0.069,0.004,0.040,-0.040,-0.040,-0.146,-0.090,0.988,-0.002,0.004,0.002,0.000,0.000,0.000,0.000,1,2,0,2,7,255,1020,200,714,1020
stim,1756,1756,0,723213.829,0.980,0.059,-0.063,-0.182,2272,0,148,2442,71,800,20,520,1,0.000,3,0,0.060,0.008,0.040,0.020,-0.040,-0.146,-0.089,0.987,0.000,0.008,-0.002,0.000,0.000,0.000,0.000,1,2,0,2,7,255,1020,200,719,1020
stim,1756,1756,0,723218.829,0.980,0.059,-0.063,-0.182,2279,0,147,2414,69,799,21,511,1,0.000,3,0,0.060,0.008,0.040,0.020,-0.040,-0.146,-0.089,0.989,0.000,0.008,-0.002,0.000,0.000,0.000,0.000,1,2,0,2,7,255,1020,200,724,1020
stim,1756,1756,0,723223.829,0.980,0.059,-0.063,-0.182,2269,0,145,2414,69,796,19,519,1,0.000,3,0,0.049,0.008,-0.020,0.020,-0.040,-0.146,-0.089,0.987,0.000,0.008,-0.006,0.000,0.000,0.000,0.000,1,2,0,2,7,255,1020,200,729,1020
stim,1773,1773,0,723228.829,0.980,0.059,-0.063,-0.182,2264,0,149,2439,71,800,22,512,1,0.000,3,0,0.049,0.006,-0.020,0.020,-0.040,-0.146,-0.089,0.987,0.000,0.006,-0.006,0.000,0.000,0.000,0.000,1,2,0,2,7,255,1020,200,734,1020
stim,1773,1773,0,723233.829,0.980,0.059,-0.063,-0.182,2278,0,152,2410,67,807,17,527,1,0.000,3,0,0.134,0.008,-0.080,-0.040,-0.100,-0.146,-0.089,0.987,0.006,0.006,-0.008,0.000,0.000,0.000,0.000,1,2,0,2,7,255,1020,200,739,1020
stim,1773,1773,0,723238.829,0.980,0.059,-0.063,-0.182,2271,0,148,2419,70,804,21,522,1,0.000,3,0,0.049,0.008,-0.020,0.020,-0.040,-0.146,-0.089,0.987,0.002,0.008,-0.012,0.000,0.000,0.000,0.000,1,2,0,2,7,255,1020,200,744,1020
stim,1773,1773,0,723243.829,0.980,0.059,-0.063,-0.182,2263,0,147,2427,71,805,21,512,1,0.000,3,0,0.049,0.011,-0.020,0.020,-0.040,-0.146,-0.089,0.988,0.004,0.010,-0.012,0.000,0.000,0.000,0.000,1,2,0,2,7,255,1020,200,749,1020
stim,1773,1773,0,723248.829,0.980,0.059,-0.063,-0.182,2279,0,149,2415,62,805,17,516,1,0.000,3,0,0.049,0.010,-0.020,0.020,-0.040,-0.146,-0.089,0.988,0.002,0.010,-0.002,0.000,0.000,0.000,0.000,1,2,0,2,7,255,1020,200,754,1020
stim,1773,1773,0,723253.829,0.980,0.059,-0.063,-0.182,2264,0,150,2439,72,799,17,523,1,0.000,3,0,0.060,0.008,0.040,0.020,-0.040,-0.147,-0.089,0.988,0.000,0.008,-0.002,0.000,0.000,0.000,0.000,1,2,0,2,7,255,1020,200,759,1020
stim,1787,1787,0,723258.829,0.980,0.059,-0.063,-0.182,2277,0,147,2427,69,794,17,510,1,0.000,3,0,0.049,0.006,-0.020,0.020,-0.040,-0.146,-0.089,0.987,0.000,0.006,-0.002,0.000,0.000,0.000,0.000,1,2,0,2,7,255,1020,200,764,1020
stim,1787,1787,0,723263.829,0.980,0.059,-0.063,-0.182,2276,0,152,2416,69,803,19,517,1,0.000,3,0,0.049,0.006,-0.020,0.020,-0.040,-0.146,-0.089,0.988,0.000,0.006,0.004,0.000,0.000,0.000,0.000,1,2,0,2,7,255,1020,200,769,1020
stim,1808,1808,0,723268.829,0.980,0.059,-0.063,-0.182,2265,0,143,2421,71,807,21,521,1,0.000,3,0,0.049,0.004,-0.020,0.020,-0.040,-0.146,-0.089,0.987,0.000,0.004,-0.006,0.000,0.000,0.000,0.000,1,2,0,2,7,255,1020,200,774,1020
stim,1808,1808,0,723273.829,0.980,0.059,-0.063,-0.182,2271,0,149,2441,73,801,21,512,1,0.000,3,0,0.049,0.004,-0.020,0.020,-0.040,-0.146,-0.090,0.987,0.002,0.004,-0.006,0.000,0.000,0.000,0.000,1,2,0,2,7,255,1020,200,779,1020
stim,1808,1808,0,723278.829,0.980,0.059,-0.063,-0.182,2276,0,151,2427,73,800,15,509,1,0.000,3,0,0.035,0.004,-0.020,0.020,0.020,-0.147,-0.089,0.987,0.000,0.004,-0.006,0.000,0.000,0.000,0.000,1,2,0,2,7,255,1020,200,784,1020
stim,1808,1808,0,723283.829,0.980,0.059,-0.063,-0.182,2281,0,147,2427,71,800,17,523,1,0.000,3,0,0.035,0.000,-0.020,0.020,0.020,-0.147,-0.090,0.987,0.000,0.000,-0.006,0.000,0.000,0.000,0.000,1,2,0,2,7,255,1020,200,789,1020
stim,1819,1819,0,723288.829,0.980,0.059,-0.063,-0.182,2289,0,151,2416,75,799,22,506,1,0.000,3,0,0.060,0.004,-0.020,-0.040,-0.040,-0.146,-0.089,0.988,0.000,0.004,-0.004,0.000,0.000,0.000,0.000,1,2,0,2,7,255,1020,200,794,1020
stim,1819,1819,0,723293.829,0.980,0.059,-0.063,-0.182,2265,0,149,2440,73,802,19,523,1,0.000,3,0,0.069,0.004,0.040,-0.040,-0.040,-0.146,-0.090,0.988,0.000,0.004,-0.002,0.000,0.000,0.000,0.000,1,2,0,2,7,255,1020,200,799,1020
stim,1852,1852,0,723298.829,0.980,0.059,-0.063,-0.182,2262,0,149,2439,73,800,20,519,1,0.000,3,0,0.049,0.006,-0.020,-0.040,0.020,-0.147,-0.089,0.988,0.000,0.006,0.004,0.000,0.000,0.000,0.000,1,2,0,2,7,255,1020,200,804,1020
stim,1852,1852,0,723303.829,0.980,0.059,-0.063,-0.182,2271,0,149,2427,71,795,17,523,1,0.000,3,0,0.110,0.004,-0.020,-0.100,-0.040,-0.147,-0.090,0.989,-0.002,0.004,0.004,0.000,0.000,0.000,0.000,1,2,0,2,7,255,1020,200,809,1020
stim,1852,1852,0,723308.830,0.980,0.059,-0.063,-0.182,2275,0,150,2423,75,795,22,517,1,0.000,3,0,0.069,0.002,0.040,-0.040,-0.040,-0.146,-0.090,0.987,-0.002,0.000,0.004,0.000,0.000,0.000,0.000,1,2,0,2,7,255,1020,200,814,1020
stim,1852,1852,0,723313.829,0.980,0.059,-0.063,-0.182,2291,0,149,2412,75,800,16,522,1,0.000,3,0,0.115,0.004,0.040,-0.040,-0.100,-0.146,-0.089,0.988,0.004,0.000,0.002,0.000,0.000,0.000,0.000,1,2,0,2,7,255,1020,200,819,1020
stim,1852,1852,1,723318.829,0.980,0.059,-0.063,-0.182,2279,0,149,2423,68,805,25,508,1,0.000,3,0,0.115,0.007,0.040,-0.040,-0.100,-0.146,-0.089,0.987,0.004,0.006,-0.006,0.000,0.000,0.000,0.000,1,2,1,2,7,255,1020,200,824,1020
stim,1852,1852,1,723323.829,0.980,0.059,-0.063,-0.182,2273,0,149,2423,71,802,22,510,1,0.000,3,0,0.115,0.008,0.040,-0.040,-0.100,-0.146,-0.090,0.988,0.006,0.006,-0.002,0.000,0.000,0.000,0.000,1,2,1,2,7,255,1020,200,829,1020
stim,1852,1852,1,723328.829,0.980,0.059,-0.063,-0.182,2266,0,147,2415,71,801,17,510,1,0.000,3,0,0.049,0.007,-0.020,0.020,-0.040,-0.146,-0.090,0.988,0.006,0.004,-0.002,0.000,0.000,0.000,0.000,1,2,1,2,7,255,1020,200,834,1020
stim,1872,1872,1,723333.829,0.980,0.059,-0.063,-0.182,2269,0,147,2407,68,797,18,520,1,0.000,3,0,0.060,0.007,0.040,0.020,-0.040,-0.146,-0.089,0.988,0.006,0.004,0.002,0.000,0.000,0.000,0.000,1,2,1,2,7,255,1020,200,839,1020
stim,1872,1872,1,723338.829,0.980,0.059,-0.063,-0.182,2271,0,145,2412,75,795,16,508,1,0.000,3,0,0.092,0.006,-0.020,-0.040,0.080,-0.146,-0.089,0.988,0.000,0.006,0.002,0.000,0.000,0.000,0.000,1,2,1,2,7,255,1020,200,844,1020
stim,1872,1872,1,723343.829,0.980,0.059,-0.063,-0.182,2273,0,146,2421,72,799,21,519,1,0.000,3,0,0.060,0.006,0.040,-0.040,0.020,-0.147,-0.090,0.988,-0.002,0.006,0.000,0.000,0.000,0.000,0.000,1,2,1,2,7,255,1020,200,849,1020
stim,1872,1872,1,723348.829,0.980,0.059,-0.063,-0.182,2271,0,149,2422,72,796,21,521,1,0.000,3,0,0.092,0.000,-0.020,-0.040,0.080,-0.147,-0.091,0.987,0.000,0.000,-0.002,0.000,0.000,0.000,0.000,1,2,1,2,7,255,1020,200,854,1020
stim,1884,1884,1,723353.829,0.980,0.059,-0.063,-0.182,2255,0,145,2412,71,797,13,505,1,0.000,3,0,0.143,0.000,0.100,0.020,-0.100,-0.146,-0.089,0.989,0.000,0.000,0.000,0.000,0.000,0.000,0.000,1,2,1,2,7,255,1020,200,859,1020
stim,1884,1884,1,723358.829,0.980,0.059,-0.063,-0.182,2263,0,147,2427,71,797,17,521,1,0.000,3,0,0.405,0.008,0.220,0.020,-0.340,-0.144,-0.087,0.988,0.000,0.008,-0.006,0.000,0.000,0.000,0.000,1,2,1,2,7,255,1020,200,864,1020
stim,1903,1903,1,723363.829,0.980,0.059,-0.063,-0.182,2275,0,143,2413,71,795,21,519,1,0.000,3,0,0.224,0.016,0.100,0.020,0.200,-0.145,-0.091,0.989,0.014,0.008,0.008,0.000,0.000,0.000,0.000,1,2,1,2,7,255,1020,200,869,1020
stim,1903,1903,1,723368.829,0.980,0.059,-0.063,-0.182,2269,0,152,2420,73,797,16,516,1,0.000,3,0,0.797,0.015,-0.220,-0.100,0.760,-0.150,-0.092,0.989,0.014,-0.006,0.008,0.000,0.000,0.000,0.000,1,2,1,2,7,255,1020,200,874,1020
stim,1903,1903,1,723373.829,0.980,0.059,-0.063,-0.182,2269,0,151,2422,73,803,18,523,1,0.000,3,0,0.727,0.023,0.100,0.020,-0.720,-0.147,-0.083,0.987,-0.022,-0.006,0.008,0.000,0.000,0.000,0.000,1,2,1,2,7,255,1020,200,879,1020
stim,1903,1903,1,723378.829,0.980,0.059,-0.063,-0.182,2270,0,151,2421,75,803,12,523,1,0.000,3,0,0.494,0.028,0.460,0.080,-0.160,-0.146,-0.087,0.985,-0.022,0.018,-0.010,0.000,0.000,0.000,0.000,1,2,1,2,7,255,1020,200,884,1020
stim,1917,1917,1,723383.829,0.980,0.059,-0.063,-0.182,2268,0,147,2421,75,803,18,511,1,0.000,3,0,0.376,0.021,-0.220,-0.160,0.260,-0.144,-0.096,0.994,-0.010,0.018,-0.010,0.000,0.000,0.000,0.000,1,2,1,2,7,255,1020,200,889,1020
stim,1917,1917,1,723388.829,0.980,0.059,-0.063,-0.182,2271,0,145,2429,64,799,14,521,1,0.000,3,0,0.183,0.021,0.160,0.080,-0.040,-0.146,-0.083,0.985,-0.010,0.018,-0.032,0.000,0.000,0.000,0.000,1,2,1,2,7,255,1020,200,894,1020
stim,1917,1917,1,723393.829,0.980,0.059,-0.063,-0.182,2268,0,147,2413,60,802,17,507,1,0.000,3,0,0.487,0.024,-0.460,0.140,0.080,-0.149,-0.088,0.987,-0.024,0.004,-0.008,0.000,0.000,0.000,0.000,1,2,1,2,7,255,1020,200,899,1020
stim,1917,1917,1,723398.829,0.980,0.059,-0.063,-0.182,2279,0,149,2413,67,798,19,509,1,0.000,3,0,1.172,0.031,1.020,-0.480,0.320,-0.144,-0.088,0.988,-0.024,0.020,-0.008,0.000,0.000,0.000,0.000,1,2,1,2,7,255,1020,200,904,1020
stim,1947,1947,1,723403.829,0.980,0.059,-0.063,-0.182,2279,0,157,2429,61,803,20,517,1,0.000,3,0,2.025,0.018,-1.120,0.880,-1.440,-0.153,-0.099,0.992,-0.018,0.004,-0.006,0.000,0.000,0.000,0.000,1,2,1,2,7,255,1020,200,909,1020
stim,1947,1947,1,723408.830,0.980,0.059,-0.063,-0.182,2273,0,156,2423,61,803,12,519,1,0.000,3,0,3.176,0.028,1.200,-1.700,2.400,-0.126,-0.069,0.981,0.020,0.020,-0.006,0.000,0.000,0.000,0.000,1,2,1,2,7,255,1020,200,914,1020
stim,1947,1947,1,723413.829,0.980,0.059,-0.063,-0.182,2277,0,157,2429,60,797,13,521,1,0.000,3,0,3.597,0.102,-0.940,2.880,-1.940,-0.185,-0.128,0.990,-0.018,-0.100,0.060,0.000,0.000,0.000,0.000,1,2,1,2,7,255,1020,200,919,1020
stim,1947,1947,1,723418.829,0.980,0.059,-0.063,-0.182,2270,0,157,2419,62,803,13,508,1,0.000,3,0,4.204,0.266,0.160,-4.200,-0.100,-0.103,-0.050,1.001,0.102,0.246,0.030,0.000,0.000,0.000,0.000,1,2,1,2,7,255,1020,200,924,1020
stim,1947,1947,1,723423.829,0.980,0.059,-0.063,-0.182,2266,0,152,2427,59,797,16,521,1,0.000,3,0,5.371,0.259,1.140,4.160,3.200,-0.166,-0.096,0.947,-0.186,-0.180,0.030,0.000,0.000,0.000,0.000,1,2,1,2,7,255,1020,200,929,1020
stim,1947,1947,1,723428.829,0.980,0.059,-0.063,-0.182,2275,0,149,2422,58,801,13,508,1,0.000,3,0,4.407,0.182,-1.560,-2.240,-3.460,-0.171,-0.127,1.044,-0.030,-0.180,0.030,0.000,0.000,0.000,0.000,1,2,1,2,7,255,1020,200,934,1020
stim,1979,1979,1,723433.829,0.980,0.059,-0.063,-0.182,2265,0,149,2425,57,797,18,510,1,0.000,3,0,1.174,0.182,0.580,-1.020,-0.040,-0.116,-0.056,0.946,-0.030,-0.180,-0.360,0.000,0.000,0.000,0.000,1,2,1,2,7,255,1020,200,939,1020
stim,1979,1979,1,723438.829,0.980,0.059,-0.063,-0.182,2265,0,151,2411,57,793,18,521,1,0.000,3,0,3.781,0.126,0.820,2.640,2.580,-0.142,-0.078,0.994,0.008,0.126,0.040,0.000,0.000,0.000,0.000,1,2,1,2,7,255,1020,200,944,1020
stim,1979,1979,1,723443.829,0.980,0.059,-0.063,-0.182,2269,0,149,2415,55,799,17,510,1,0.000,3,0,1.971,0.126,-0.520,-1.760,-0.720,-0.163,-0.107,1.001,0.008,0.126,0.040,0.000,0.000,0.000,0.000,1,2,1,2,7,255,1020,200,949,1020
stim,1979,1979,1,723448.829,0.980,0.059,-0.063,-0.182,2279,0,151,2439,51,806,13,519,1,0.000,3,0,0.598,0.035,0.280,0.260,-0.460,-0.145,-0.093,0.980,0.008,-0.034,0.040,0.000,0.000,0.000,0.000,1,2,1,2,7,255,1020,200,954,1020
stim,1979,1979,1,723453.829,0.980,0.059,-0.063,-0.182,2268,0,147,2416,55,807,13,512,1,0.000,3,0,0.237,0.037,0.100,0.080,0.200,-0.146,-0.090,0.990,0.014,-0.034,0.018,0.000,0.000,0.000,0.000,1,2,1,2,7,255,1020,200,959,1020
stim,1979,1979,1,723458.829,0.980,0.059,-0.063,-0.182,2266,0,147,2421,57,805,21,509,1,0.000,3,0,0.467,0.018,-0.400,-0.220,-0.100,-0.148,-0.090,0.988,0.014,-0.012,0.008,0.000,0.000,0.000,0.000,1,2,1,2,7,255,1020,200,964,1020
stim,1995,1995,1,723463.829,0.980,0.059,-0.063,-0.182,2277,0,154,2427,57,803,17,521,1,0.000,3,0,0.199,0.008,-0.140,-0.100,-0.100,-0.146,-0.086,0.983,-0.008,0.000,0.008,0.000,0.000,0.000,0.000,1,2,1,2,7,255,1020,200,969,1020
stim,1995,1995,1,723468.829,0.980,0.059,-0.063,-0.182,2264,0,155,2421,52,795,19,517,1,0.000,3,0,0.481,0.029,0.460,0.020,0.140,-0.143,-0.083,0.985,-0.008,0.028,-0.034,0.000,0.000,0.000,0.000,1,2,1,2,7,255,1020,200,974,1020
stim,2011,2011,1,723473.829,0.980,0.059,-0.063,-0.182,2275,0,151,2412,55,805,16,507,1,0.000,3,0,0.774,0.033,0.700,0.080,0.320,-0.144,-0.086,0.988,0.006,0.032,-0.034,0.000,0.000,0.000,0.000,1,2,1,2,7,255,1020,200,979,1020
stim,2011,2011,1,723478.829,0.980,0.059,-0.063,-0.182,2263,0,149,2422,59,795,16,517,1,0.000,3,0,0.477,0.033,0.400,0.020,0.260,-0.147,-0.091,0.990,0.006,0.032,-0.006,0.000,0.000,0.000,0.000,1,2,1,2,7,255,1020,200,984,1020
stim,2011,2011,1,723483.829,0.980,0.059,-0.063,-0.182,2275,0,149,2421,59,804,19,509,1,0.000,3,0,0.049,0.016,-0.020,-0.040,0.020,-0.149,-0.094,0.991,0.000,-0.016,0.022,0.000,0.000,0.000,0.000,1,2,1,2,7,255,1020,200,989,1020
stim,2011,2011,1,723488.829,0.980,0.059,-0.063,-0.182,2259,0,137,2413,59,795,20,508,1,0.000,3,0,0.199,0.028,-0.140,-0.100,-0.100,-0.148,-0.092,0.990,-0.002,-0.028,0.024,0.000,0.000,0.000,0.000,1,2,1,2,7,255,1020,200,994,1020
stim,2059,2059,1,723493.829,0.980,0.059,-0.063,-0.182,2263,0,134,2419,60,805,21,519,1,0.000,3,0,0.245,0.029,-0.220,-0.040,-0.100,-0.146,-0.088,0.986,-0.006,-0.028,0.024,0.000,0.000,0.000,0.000,1,2,1,2,7,255,1020,200,999,1020
stim,2059,2059,1,723498.829,0.980,0.059,-0.063,-0.182,2264,0,133,2420,55,805,19,505,1,0.000,3,0,0.151,0.017,-0.140,-0.040,-0.040,-0.145,-0.091,0.986,-0.006,-0.016,-0.016,0.000,0.000,0.000,0.000,1,2,1,2,7,255,1020,200,1004,1020
stim,2059,2059,1,723503.829,0.980,0.059,-0.063,-0.182,2261,0,139,2420,53,803,18,508,1,0.000,3,0,0.092,0.010,-0.020,0.080,-0.040,-0.145,-0.085,0.987,-0.002,0.010,-0.016,0.000,0.000,0.000,0.000,1,2,1,2,7,255,1020,200,1009,1020
stim,2059,2059,1,723508.829,0.980,0.059,-0.063,-0.182,2264,0,141,2423,560,804,21,523,1,0.000,3,0,0.166,0.022,0.160,0.020,-0.040,-0.145,-0.087,0.986,0.004,0.022,-0.018,0.000,0.000,0.000,0.000,1,2,1,2,7,255,1020,200,1014,1020
stim,2059,2059,1,723513.829,0.980,0.059,-0.063,-0.182,2277,0,135,2429,663,805,16,521,1,0.000,3,0,0.190,0.022,0.160,0.020,-0.100,-0.147,-0.088,0.987,-0.002,0.022,-0.016,0.000,0.000,0.000,0.000,1,2,1,2,7,255,1020,200,1019,1020
stim,2059,2059,0,723518.829,0.980,0.059,-0.063,-0.182,2269,0,139,2421,871,803,15,523,1,0.000,3,0,0.143,0.011,0.100,0.020,-0.100,-0.149,-0.087,0.988,-0.008,0.008,-0.010,0.000,0.000,0.000,0.000,1,2,0,2,7,255,1020,200,4,1020
stim,2075,2075,0,723523.829,0.980,0.059,-0.063,-0.182,2269,0,137,2423,937,809,18,507,1,0.000,3,0,0.098,0.009,0.040,0.080,-0.040,-0.148,-0.092,0.988,-0.008,0.004,0.002,0.000,0.000,0.000,0.000,1,2,0,2,7,255,1020,200,9,1020
stim,2075,2075,0,723528.829,0.980,0.059,-0.063,-0.182,2279,0,139,2421,1149,799,20,519,1,0.000,3,0,0.060,0.004,0.040,-0.040,0.020,-0.146,-0.090,0.989,-0.002,-0.004,0.004,0.000,0.000,0.000,0.000,1,2,0,2,7,255,1020,200,14,1020
stim,2075,2075,0,723533.829,0.980,0.059,-0.063,-0.182,2283,0,138,2422,953,800,22,510,1,0.000,3,0,0.049,0.004,0.040,0.020,0.020,-0.147,-0.089,0.989,-0.002,-0.004,0.010,0.000,0.000,0.000,0.000,1,2,0,2,7,255,1020,200,19,1020
stim,2075,2075,0,723538.829,0.980,0.059,-0.063,-0.182,2275,0,136,2415,869,807,19,511,1,0.000,3,0,0.162,0.004,0.160,0.020,0.020,-0.146,-0.088,0.988,0.004,0.002,0.010,0.000,0.000,0.000,0.000,1,2,0,2,7,255,1020,200,24,1020
stim,2075,2075,0,723543.829,0.980,0.059,-0.063,-0.182,2271,0,141,2426,1045,795,20,520,1,0.000,3,0,0.162,0.016,0.160,0.020,0.020,-0.146,-0.087,0.989,0.002,0.016,0.006,0.000,0.000,0.000,0.000,1,2,0,2,7,255,1020,200,29,1020
stim,2075,2075,0,723548.829,0.980,0.059,-0.063,-0.182,2263,0,141,2425,869,803,21,521,1,0.000,3,0,0.104,0.017,0.100,0.020,0.020,-0.146,-0.089,0.987,0.006,0.016,0.002,0.000,0.000,0.000,0.000,1,2,0,2,7,255,1020,200,34,1020
stim,2091,2091,0,723553.829,0.980,0.059,-0.063,-0.181,2279,0,137,2424,767,798,22,520,1,0.000,3,0,0.162,0.003,-0.020,0.020,-0.160,-0.149,-0.092,0.989,0.002,-0.002,0.006,0.000,0.000,0.000,0.000,1,2,0,2,7,255,1020,200,39,1020
stim,2091,2091,0,723558.829,0.980,0.059,-0.063,-0.181,2277,0,141,2423,717,795,18,521,1,0.000,3,0,0.491,0.032,-0.340,-0.100,-0.340,-0.149,-0.093,0.989,-0.010,-0.030,0.020,0.000,0.000,0.000,0.000,1,2,0,2,7,255,1020,200,44,1020
stim,2091,2091,0,723563.829,0.980,0.059,-0.063,-0.181,2276,0,137,2427,715,807,21,520,1,0.000,3,0,0.785,0.032,-0.580,-0.100,-0.520,-0.148,-0.090,0.986,-0.010,-0.030,0.020,0.000,0.000,0.000,0.000,1,2,0,2,7,255,1020,200,49,1020
stim,2091,2091,0,723568.829,0.980,0.058,-0.063,-0.181,2265,0,145,2421,675,805,18,523,1,0.000,3,0,0.381,0.019,-0.140,-0.100,-0.340,-0.139,-0.079,0.983,-0.010,-0.016,-0.012,0.000,0.000,0.000,0.000,1,2,0,2,7,255,1020,200,54,1020
stim,2111,2111,0,723573.829,0.980,0.058,-0.063,-0.182,2279,0,139,2413,661,803,17,511,1,0.000,3,0,1.180,0.111,0.880,0.200,0.760,-0.134,-0.073,0.984,0.026,0.108,-0.066,0.000,0.000,0.000,0.000,1,2,0,2,7,255,1020,200,59,1020
stim,2111,2111,0,723578.829,0.980,0.058,-0.063,-0.182,2273,0,139,2421,727,807,20,524,1,0.000,3,0,1.695,0.111,0.880,0.500,1.360,-0.149,-0.093,0.992,0.026,0.108,-0.066,0.000,0.000,0.000,0.000,1,2,0,2,7,255,1020,200,64,1020
stim,2111,2111,0,723583.829,0.980,0.058,-0.063,-0.182,2269,0,139,2431,725,799,20,527,1,0.000,3,0,1.142,0.045,-0.940,-0.100,-0.640,-0.171,-0.120,0.998,-0.010,-0.044,0.046,0.000,0.000,0.000,0.000,1,2,0,2,7,255,1020,200,69,1020
stim,2111,2111,0,723588.829,0.980,0.059,-0.063,-0.181,2281,0,140,2426,721,803,18,522,1,0.000,3,0,3.024,0.062,-1.500,-1.020,-2.420,-0.150,-0.094,0.986,-0.014,-0.060,0.046,0.000,0.000,0.000,0.000,1,2,0,2,7,255,1020,200,74,1020
stim,2124,2124,0,723593.829,0.980,0.058,-0.063,-0.181,2265,0,142,2424,732,803,20,527,1,0.000,3,0,1.421,0.062,1.200,-0.040,0.760,-0.120,-0.054,0.973,-0.014,-0.060,-0.006,0.000,0.000,0.000,0.000,1,2,0,2,7,255,1020,200,79,1020
stim,2124,2124,0,723598.829,0.980,0.058,-0.063,-0.182,2269,0,143,2430,619,803,14,527,1,0.000,3,0,2.874,0.062,1.320,1.360,2.160,-0.153,-0.094,0.991,-0.014,-0.060,-0.006,0.000,0.000,0.000,0.000,1,2,0,2,7,255,1020,200,84,1020
stim,2155,2155,0,723603.829,0.980,0.059,-0.063,-0.181,2277,0,141,2425,573,799,16,525,1,0.000,3,0,2.810,0.079,-1.620,-0.720,-2.180,-0.163,-0.115,1.004,-0.036,-0.070,0.044,0.000,0.000,0.000,0.000,1,2,0,2,7,255,1020,200,89,1020
stim,2155,2155,0,723608.830,0.980,0.058,-0.063,-0.181,2279,0,148,2429,615,811,18,527,1,0.000,3,0,1.263,0.079,0.040,-1.260,0.080,-0.125,-0.061,0.973,-0.036,-0.070,0.044,0.000,0.000,0.000,0.000,1,2,0,2,7,255,1020,200,94,1020
stim,2155,2155,0,723613.829,0.980,0.058,-0.063,-0.181,2271,0,143,2421,649,798,21,524,1,0.000,3,0,3.260,0.196,1.320,2.280,1.920,-0.165,-0.102,0.982,-0.040,-0.192,-0.016,0.000,0.000,0.000,0.000,1,2,0,2,7,255,1020,200,99,1020
stim,2155,2155,0,723618.829,0.980,0.058,-0.063,-0.181,2279,0,144,2423,741,797,18,524,1,0.000,3,0,3.922,0.114,-1.180,-1.560,-3.400,-0.146,-0.103,1.019,0.072,-0.088,-0.016,0.000,0.000,0.000,0.000,1,2,0,2,7,255,1020,200,104,1020
stim,2155,2155,0,723623.829,0.980,0.058,-0.063,-0.181,2285,0,139,2415,739,805,21,522,1,0.000,3,0,2.899,0.102,0.400,-0.540,2.820,-0.121,-0.050,0.951,0.052,-0.088,-0.016,0.000,0.000,0.000,0.000,1,2,0,2,7,255,1020,200,109,1020
stim,2155,2155,0,723628.829,0.980,0.059,-0.063,-0.181,2279,0,141,2430,797,797,17,525,1,0.000,3,0,2.944,0.102,0.400,2.880,-0.460,-0.188,-0.131,1.002,0.052,-0.088,0.242,0.000,0.000,0.000,0.000,1,2,0,2,7,255,1020,200,114,1020
stim,2155,2155,0,723633.829,0.980,0.058,-0.063,-0.181,2270,0,148,2421,759,800,13,529,1,0.000,3,0,4.936,0.326,-0.760,-4.200,-2.480,-0.110,-0.069,1.008,0.052,0.322,0.132,0.000,0.000,0.000,0.000,1,2,0,2,7,255,1020,200,119,1020
stim,2172,2172,0,723638.829,0.980,0.058,-0.063,-0.182,2281,0,141,2422,764,808,17,531,1,0.000,3,0,5.483,0.213,0.580,3.500,4.180,-0.163,-0.079,0.939,-0.210,-0.038,0.132,0.000,0.000,0.000,0.000,1,2,0,2,7,255,1020,200,124,1020
stim,2172,2172,0,723643.829,0.980,0.058,-0.063,-0.181,2281,0,143,2419,801,806,13,527,1,0.000,3,0,4.484,0.132,-0.080,-1.200,-4.320,-0.151,-0.121,1.045,0.126,-0.038,0.132,0.000,0.000,0.000,0.000,1,2,0,2,7,255,1020,200,129,1020
stim,2172,2172,0,723648.829,0.980,0.058,-0.063,-0.181,2277,0,145,2412,787,797,19,522,1,0.000,3,0,3.611,0.038,-0.400,-1.500,3.260,-0.127,-0.053,0.943,0.000,-0.038,-0.454,0.000,0.000,0.000,0.000,1,2,0,2,7,255,1020,200,134,1020
stim,2187,2187,0,723653.829,0.980,0.058,-0.063,-0.181,2279,0,148,2416,795,799,22,524,1,0.000,3,0,4.030,0.238,0.640,3.440,-2.000,-0.171,-0.121,1.008,0.000,-0.238,0.264,0.000,0.000,0.000,0.000,1,2,0,2,7,255,1020,200,0,0
stim,2187,2187,0,723658.829,0.980,0.058,-0.063,-0.181,2281,0,145,2424,780,809,23,525,1,0.000,3,0,4.370,0.280,-0.760,-4.200,0.940,-0.122,-0.067,0.994,0.000,0.280,0.006,0.000,0.000,0.000,0.000,1,2,0,2,7,255,1020,200,0,0
stim,2204,2204,0,723663.829,0.980,0.058,-0.063,-0.181,2285,0,147,2415,773,805,23,523,1,0.000,3,0,3.874,0.271,0.700,3.800,-0.280,-0.169,-0.104,0.964,-0.088,-0.256,0.006,0.000,0.000,0.000,0.000,1,2,0,2,7,255,1020,200,0,0
stim,2204,2204,0,723668.829,0.980,0.058,-0.063,-0.181,2287,0,149,2423,787,809,20,522,1,0.000,3,0,2.990,0.255,-0.640,-2.920,-0.040,-0.127,-0.077,1.020,0.148,0.208,0.006,0.000,0.000,0.000,0.000,1,2,0,2,7,255,1020,200,0,0
