condition_phase,condition_phase_elapsed_ms,condition_elapsed_ms,is_stimulation_on,t_ms,L_q0,L_q1,L_q2,L_q3,L_heel1,L_mid1,L_fore1,L_heel2,L_fore3,L_mid2,L_fore4,L_fore2,L_cadence,L_speed,L_steps,L_zupt,L_gyroNorm,L_accH,L_gyro_x,L_gyro_y,L_gyro_z,L_acc_x,L_acc_y,L_acc_z,L_nav_ax,L_nav_ay,L_nav_az,L_stepVel,L_stepVelj,L_stepDispRaw,L_stepDispZUPT,L_gaitEvent,L_motorMode,L_motorActive,L_motorAlignment,L_motorRegionMask,L_motorAmplitude,L_motorIntervalMs,L_motorDurationMs,L_motorPhaseMs,L_motorCycleMs
stim,16,16,0,335353.829,0.994,0.041,-0.042,0.093,2476,0,176,2275,1199,1103,37,812,0,0.000,1,0,0.379,0.004,-0.280,-0.160,-0.200,-0.077,-0.092,1.001,-0.004,0.002,0.016,0.000,0.000,0.000,0.000,0,2,0,3,7,255,918,200,0,0
stim,16,16,0,335358.829,0.994,0.041,-0.042,0.093,2488,0,175,2274,1120,1111,39,809,0,0.000,1,0,0.381,0.003,-0.340,-0.100,-0.140,-0.074,-0.090,0.995,0.002,0.002,0.016,0.000,0.000,0.000,0.000,0,2,0,3,7,255,918,200,0,0
stim,16,16,0,335363.829,0.994,0.041,-0.042,0.093,2501,0,186,2276,20,1107,40,821,0,0.000,1,0,0.453,0.021,-0.400,0.140,0.160,-0.075,-0.088,0.991,0.020,0.006,-0.010,0.000,0.000,0.000,0.000,0,2,0,3,7,255,918,200,0,0
stim,16,16,0,335368.829,0.994,0.041,-0.042,0.093,2485,0,180,2277,17,1111,39,811,0,0.000,1,0,0.526,0.021,-0.460,0.200,0.160,-0.079,-0.091,0.993,0.020,0.006,-0.024,0.000,0.000,0.000,0.000,0,2,0,3,7,255,918,200,0,0
stim,60,60,0,335373.829,0.994,0.041,-0.042,0.093,2477,0,182,2277,156,1104,37,815,0,0.000,1,0,0.625,0.019,-0.340,-0.160,-0.500,-0.079,-0.093,0.998,-0.018,0.006,-0.024,0.000,0.000,0.000,0.000,0,2,0,3,7,255,918,200,0,0
stim,60,60,0,335378.829,0.994,0.041,-0.042,0.093,2472,0,179,2269,460,1112,39,825,0,0.000,1,0,0.240,0.019,0.160,-0.160,-0.080,-0.069,-0.082,0.999,-0.018,0.006,0.012,0.000,0.000,0.000,0.000,0,2,0,3,7,255,918,200,0,0
stim,61,61,0,335383.829,0.994,0.041,-0.042,0.093,2489,0,181,2279,435,1113,41,812,0,0.000,1,0,1.600,0.013,0.340,0.440,1.500,-0.077,-0.090,0.993,-0.004,0.012,0.012,0.000,0.000,0.000,0.000,0,2,0,3,7,255,918,200,0,0
stim,61,61,0,335388.829,0.994,0.041,-0.042,0.093,2489,0,181,2279,188,1108,39,811,0,0.000,1,0,1.301,0.013,-0.820,0.140,-1.000,-0.099,-0.115,1.002,-0.004,0.012,0.012,0.000,0.000,0.000,0.000,0,2,0,3,7,255,918,200,0,0
stim,61,61,0,335393.829,0.994,0.041,-0.042,0.093,2477,0,181,2271,329,1107,37,815,0,0.000,1,0,3.599,0.013,-0.940,-1.200,-3.260,-0.065,-0.082,1.001,-0.004,0.012,0.032,0.000,0.000,0.000,0.000,0,2,0,3,7,255,918,200,0,0
stim,61,61,0,335398.829,0.994,0.041,-0.042,0.093,2487,0,184,2281,311,1111,42,815,0,0.000,1,0,3.744,0.160,1.440,0.620,3.400,-0.051,-0.054,0.974,0.138,0.080,0.032,0.000,0.000,0.000,0.000,0,2,0,3,7,255,918,200,0,0
stim,85,85,0,335403.829,0.994,0.041,-0.042,0.093,2488,0,182,2276,187,1109,37,812,0,0.000,1,0,2.290,0.160,-0.020,1.780,1.440,-0.110,-0.127,1.004,0.138,0.080,0.032,0.000,0.000,0.000,0.000,0,2,0,3,7,255,918,200,0,918
stim,85,85,0,335408.829,0.994,0.041,-0.042,0.093,2472,0,195,2285,263,1109,37,825,0,0.000,1,0,6.224,0.080,-1.860,-2.720,-5.280,-0.071,-0.095,1.021,0.076,-0.026,0.140,0.000,0.000,0.000,0.000,0,2,0,3,7,255,918,200,4,918
stim,85,85,0,335413.830,0.994,0.041,-0.042,0.093,2483,0,183,2283,391,1107,42,812,0,0.000,1,0,4.464,0.080,1.440,0.940,4.120,-0.058,-0.056,0.963,0.076,-0.026,0.140,0.000,0.000,0.000,0.000,0,2,0,3,7,255,918,200,9,918
stim,85,85,0,335418.829,0.994,0.041,-0.042,0.093,2475,0,183,2271,147,1109,37,819,0,0.000,1,0,2.045,0.080,-0.400,1.920,-0.580,-0.099,-0.125,1.004,0.076,-0.026,0.124,0.000,0.000,0.000,0.000,0,2,0,3,7,255,918,200,14,918
stim,85,85,0,335423.829,0.994,0.041,-0.042,0.093,2492,0,181,2279,375,1111,37,813,0,0.000,1,0,3.723,0.282,-0.820,-2.920,-2.160,-0.058,-0.070,1.016,0.214,0.184,0.124,0.000,0.000,0.000,0.000,0,2,0,3,7,255,918,200,19,918
stim,85,85,0,335428.829,0.994,0.041,-0.042,0.093,2479,0,187,2272,213,1109,36,815,0,0.000,1,0,3.865,0.193,0.940,1.920,3.220,-0.091,-0.100,0.963,-0.176,-0.080,0.124,0.000,0.000,0.000,0.000,0,2,0,3,7,255,918,200,24,918
stim,10,10,0,335433.829,0.994,0.041,-0.042,0.093,2508,0,185,2265,264,1112,39,825,0,0.000,1,0,2.921,0.136,-0.760,-0.040,-2.820,-0.066,-0.088,1.023,0.132,0.032,0.160,0.000,0.000,0.000,0.000,0,2,0,3,7,255,918,250,29,918
stim,10,10,0,335438.829,0.994,0.041,-0.042,0.093,2473,0,187,2248,293,1117,40,819,0,0.000,1,0,2.847,0.056,-0.220,-1.380,2.480,-0.081,-0.088,0.980,-0.048,0.028,-0.150,0.000,0.000,0.000,0.000,0,2,0,3,7,255,918,250,34,918
stim,36,36,0,335443.829,0.994,0.041,-0.042,0.093,2489,0,182,2280,183,1102,38,817,0,0.000,1,0,2.836,0.040,0.940,1.980,-1.800,-0.079,-0.097,0.997,-0.028,0.028,0.018,0.000,0.000,0.000,0.000,0,2,0,3,7,255,918,250,39,918
stim,36,36,0,335448.829,0.994,0.041,-0.042,0.093,2487,0,187,2272,269,1111,41,812,0,0.000,1,0,2.662,0.040,-1.500,-1.880,1.140,-0.065,-0.081,1.001,-0.028,0.028,0.018,0.000,0.000,0.000,0.000,0,2,0,3,7,255,918,250,44,918
stim,36,36,0,335453.829,0.994,0.041,-0.042,0.093,2489,0,185,2270,187,1107,36,819,0,0.000,1,0,2.371,0.056,1.980,1.300,0.100,-0.092,-0.102,0.986,-0.028,-0.048,0.018,0.000,0.000,0.000,0.000,0,2,0,3,7,255,918,250,49,918
stim,36,36,0,335458.829,0.994,0.041,-0.042,0.093,2464,0,183,2267,199,1103,38,813,0,0.000,1,0,2.367,0.158,-2.160,-0.600,-0.760,-0.061,-0.081,1.005,0.134,0.084,0.032,0.000,0.000,0.000,0.000,0,2,0,3,7,255,918,250,54,918
stim,36,36,0,335463.829,0.994,0.041,-0.042,0.093,2485,0,181,2281,205,1107,39,813,0,0.000,1,0,3.032,0.186,2.600,-0.040,1.560,-0.092,-0.102,0.988,-0.168,-0.080,-0.058,0.000,0.000,0.000,0.000,0,2,0,3,7,255,918,250,59,918
stim,74,74,0,335468.829,0.994,0.041,-0.042,0.093,2477,0,181,2279,201,1109,37,824,0,0.000,1,0,2.900,0.158,-2.480,0.260,-1.480,-0.067,-0.074,1.000,0.134,0.084,0.022,0.000,0.000,0.000,0.000,0,2,0,3,7,255,918,250,64,918
stim,74,74,0,335473.829,0.994,0.041,-0.042,0.093,2488,0,184,2279,175,1107,39,813,0,0.000,1,0,2.977,0.127,2.540,-0.400,1.500,-0.083,-0.113,0.993,-0.098,-0.080,-0.008,0.000,0.000,0.000,0.000,0,2,0,3,7,255,918,250,69,918
stim,74,74,0,335478.829,0.994,0.041,-0.042,0.093,2491,0,183,2279,226,1111,43,811,0,0.000,1,0,1.864,0.181,-1.800,0.200,-0.440,-0.074,-0.059,1.000,0.088,0.158,0.006,0.000,0.000,0.000,0.000,0,2,0,3,7,255,918,250,74,918
stim,74,74,0,335483.829,0.994,0.041,-0.042,0.093,2473,0,191,2233,158,1109,40,821,0,0.000,1,0,1.320,0.206,1.260,-0.100,-0.380,-0.076,-0.124,0.992,-0.048,-0.200,-0.008,0.000,0.000,0.000,0.000,0,2,0,3,7,255,918,250,79,918
stim,74,74,0,335488.829,0.994,0.041,-0.042,0.093,2483,0,183,2277,191,1107,39,819,0,0.000,1,0,1.401,0.311,-0.220,-0.100,1.380,-0.081,-0.059,1.001,0.028,0.310,0.006,0.000,0.000,0.000,0.000,0,2,0,3,7,255,918,250,84,918
stim,74,74,0,335493.829,0.994,0.041,-0.042,0.093,2479,0,184,2282,163,1107,42,812,0,0.000,1,0,1.317,0.168,-0.160,0.140,-1.300,-0.074,-0.108,0.994,0.000,-0.168,-0.008,0.000,0.000,0.000,0.000,0,2,0,3,7,255,918,250,89,918
stim,94,94,0,335498.829,0.994,0.041,-0.042,0.093,2479,0,185,2280,167,1104,39,817,0,0.000,1,0,1.031,0.048,0.340,-0.160,0.960,-0.078,-0.087,0.996,0.000,0.048,0.000,0.000,0.000,0.000,0.000,0,2,0,3,7,255,918,250,94,918
stim,94,94,0,335503.829,0.994,0.041,-0.042,0.093,2489,0,190,2279,165,1109,41,813,0,0.000,1,0,0.190,0.048,0.100,0.020,0.160,-0.076,-0.079,0.997,0.000,0.048,-0.004,0.000,0.000,0.000,0.000,0,2,0,3,7,255,918,250,99,918
stim,94,94,0,335508.830,0.994,0.041,-0.042,0.093,2474,0,189,2275,163,1111,40,819,0,0.000,1,0,0.758,0.048,-0.280,0.080,-0.700,-0.077,-0.103,0.998,-0.002,0.048,0.000,0.000,0.000,0.000,0.000,0,2,0,3,7,255,918,250,104,918
stim,94,94,0,335513.829,0.994,0.041,-0.042,0.093,2474,0,191,2267,165,1112,41,823,0,0.000,1,0,0.952,0.077,0.220,-0.220,0.900,-0.077,-0.083,0.994,0.012,0.076,-0.004,0.000,0.000,0.000,0.000,0,2,0,3,7,255,918,250,109,918
stim,94,94,0,335518.829,0.994,0.041,-0.042,0.093,2499,0,184,2283,160,1109,40,817,0,0.000,1,0,0.420,0.042,0.160,0.080,-0.380,-0.074,-0.087,0.998,0.012,0.040,0.010,0.000,0.000,0.000,0.000,0,2,0,3,7,255,918,250,114,918
stim,94,94,0,335523.829,0.994,0.041,-0.042,0.093,2479,0,188,2271,161,1109,37,815,0,0.000,1,0,0.355,0.042,-0.340,-0.100,-0.020,-0.077,-0.098,0.998,0.012,0.040,0.010,0.000,0.000,0.000,0.000,0,2,0,3,7,255,918,250,119,918
stim,94,94,0,335528.829,0.994,0.041,-0.042,0.093,2495,0,191,2285,169,1111,37,815,0,0.000,1,0,0.546,0.040,0.160,-0.040,0.520,-0.079,-0.081,0.995,-0.002,0.040,0.010,0.000,0.000,0.000,0.000,0,2,0,3,7,255,918,250,124,918
stim,94,94,0,335533.829,0.994,0.041,-0.042,0.093,2478,0,185,2271,159,1111,37,819,0,0.000,1,0,0.648,0.018,-0.100,0.020,-0.640,-0.074,-0.093,0.995,-0.002,-0.018,-0.008,0.000,0.000,0.000,0.000,0,2,0,3,7,255,918,250,129,918
stim,106,106,0,335538.829,0.994,0.041,-0.042,0.093,2488,0,184,2279,159,1111,40,813,0,0.000,1,0,0.110,0.033,-0.100,-0.040,-0.020,-0.073,-0.095,0.997,0.028,-0.018,-0.008,0.000,0.000,0.000,0.000,0,2,0,3,7,255,918,250,134,918
stim,106,106,0,335543.829,0.994,0.041,-0.042,0.093,2474,0,187,2267,169,1113,43,807,0,0.000,1,0,0.781,0.033,0.040,0.020,0.780,-0.081,-0.081,0.998,0.028,-0.018,0.010,0.000,0.000,0.000,0.000,0,2,0,3,7,255,918,250,139,918
stim,128,128,0,335548.829,0.994,0.041,-0.042,0.093,2486,0,184,2275,155,1108,41,816,0,0.000,1,0,0.306,0.019,-0.160,0.020,-0.260,-0.080,-0.093,0.998,-0.018,-0.006,0.012,0.000,0.000,0.000,0.000,0,2,0,3,7,255,918,250,144,918
stim,128,128,0,335553.829,0.994,0.041,-0.042,0.093,2484,0,183,2283,160,1109,40,814,0,0.000,1,0,0.811,0.019,-0.280,-0.040,-0.760,-0.072,-0.097,0.994,-0.018,-0.006,0.010,0.000,0.000,0.000,0.000,0,2,0,3,7,255,918,250,149,918
stim,128,128,0,335558.829,0.994,0.041,-0.042,0.093,2485,0,188,2278,155,1107,33,823,0,0.000,1,0,0.357,0.038,0.100,-0.040,0.340,-0.074,-0.083,0.994,0.038,-0.006,-0.020,0.000,0.000,0.000,0.000,0,2,0,3,7,255,918,250,154,918
stim,128,128,0,335563.829,0.994,0.041,-0.042,0.093,2478,0,183,2272,160,1108,37,821,0,0.000,1,0,0.661,0.064,-0.020,0.020,0.660,-0.083,-0.087,1.001,0.038,0.052,-0.020,0.000,0.000,0.000,0.000,0,2,0,3,7,255,918,250,159,918
stim,170,170,0,335568.829,0.994,0.041,-0.042,0.093,2493,0,183,2281,159,1109,39,813,0,0.000,1,0,0.582,0.066,-0.520,0.020,-0.260,-0.082,-0.097,0.996,-0.040,0.052,0.006,0.000,0.000,0.000,0.000,0,2,0,3,7,255,918,250,164,918
stim,170,170,0,335573.829,0.994,0.041,-0.042,0.093,2473,0,186,2267,155,1117,41,820,0,0.000,1,0,0.699,0.052,-0.280,0.020,-0.640,-0.073,-0.087,0.992,-0.040,0.034,0.006,0.000,0.000,0.000,0.000,0,2,0,3,7,255,918,250,169,918
stim,170,170,0,335578.829,0.994,0.041,-0.042,0.093,2479,0,183,2271,163,1111,39,819,0,0.000,1,0,0.352,0.054,0.340,-0.040,-0.080,-0.071,-0.083,0.997,0.042,0.034,-0.004,0.000,0.000,0.000,0.000,0,2,0,3,7,255,918,250,174,918
stim,170,170,0,335583.829,0.994,0.041,-0.042,0.093,2478,0,185,2271,167,1107,33,819,0,0.000,1,0,0.591,0.054,-0.280,0.020,0.520,-0.077,-0.093,1.001,0.042,0.034,-0.004,0.000,0.000,0.000,0.000,0,2,0,3,7,255,918,250,179,918
stim,170,170,0,335588.829,0.994,0.041,-0.042,0.093,2477,0,188,2276,163,1108,34,819,0,0.000,1,0,0.810,0.008,-0.760,0.020,0.280,-0.081,-0.093,0.993,0.000,-0.008,-0.004,0.000,0.000,0.000,0.000,0,2,0,3,7,255,918,250,184,918
stim,170,170,0,335593.829,0.994,0.041,-0.042,0.093,2477,0,183,2281,160,1108,37,817,0,0.000,1,0,0.516,0.014,-0.100,0.080,-0.500,-0.079,-0.084,0.990,-0.012,-0.008,-0.022,0.000,0.000,0.000,0.000,0,2,0,3,7,255,918,250,189,918
stim,194,194,0,335598.829,0.994,0.041,-0.042,0.093,2483,0,188,2285,165,1103,41,815,0,0.000,1,0,0.626,0.017,0.280,0.020,-0.560,-0.073,-0.089,0.999,-0.012,0.012,-0.022,0.000,0.000,0.000,0.000,0,2,0,3,7,255,918,250,194,918
stim,194,194,0,335603.829,0.994,0.041,-0.042,0.093,2489,0,188,2279,169,1108,43,815,0,0.000,1,0,0.544,0.040,-0.520,0.020,0.160,-0.073,-0.094,1.000,0.038,0.012,0.026,0.000,0.000,0.000,0.000,0,2,0,3,7,255,918,250,199,918
stim,194,194,0,335608.829,0.994,0.041,-0.042,0.093,2480,0,185,2279,171,1111,43,812,0,0.000,1,0,0.741,0.040,-0.580,-0.040,0.460,-0.077,-0.089,0.993,0.038,0.012,0.026,0.000,0.000,0.000,0.000,0,2,0,3,7,255,918,250,204,918
stim,194,194,0,335613.829,0.994,0.041,-0.042,0.093,2491,0,183,2269,167,1105,37,811,0,0.000,1,0,0.134,0.022,-0.100,0.080,0.040,-0.082,-0.087,0.993,0.000,0.022,-0.026,0.000,0.000,0.000,0.000,0,2,0,3,7,255,918,250,209,918
stim,194,194,0,335618.829,0.994,0.041,-0.042,0.093,2484,0,185,2283,172,1115,33,817,0,0.000,1,0,0.452,0.022,0.100,0.020,-0.440,-0.078,-0.091,0.998,-0.004,0.022,-0.026,0.000,0.000,0.000,0.000,0,2,0,3,7,255,918,250,214,918
stim,194,194,0,335623.829,0.994,0.041,-0.042,0.093,2472,0,186,2277,173,1109,41,814,0,0.000,1,0,0.561,0.004,-0.460,0.020,-0.320,-0.073,-0.091,0.998,-0.004,0.002,0.018,0.000,0.000,0.000,0.000,0,2,0,3,7,255,918,250,219,918
stim,202,202,0,335628.829,0.994,0.041,-0.042,0.093,2476,0,184,2272,175,1107,38,821,0,0.000,1,0,0.413,0.034,-0.400,0.020,0.100,-0.074,-0.088,0.994,0.034,0.002,0.018,0.000,0.000,0.000,0.000,0,2,0,3,7,255,918,250,224,918
stim,202,202,0,335633.829,0.994,0.041,-0.042,0.093,2475,0,190,2270,180,1117,36,819,0,0.000,1,0,0.190,0.034,-0.100,0.020,0.160,-0.077,-0.091,0.995,0.034,0.004,-0.012,0.000,0.000,0.000,0.000,0,2,0,3,7,255,918,250,229,918
stim,218,218,0,335638.829,0.994,0.041,-0.042,0.093,2483,0,187,2272,171,1112,41,815,0,0.000,1,0,0.205,0.010,-0.160,0.080,0.100,-0.078,-0.090,0.997,-0.002,0.010,-0.012,0.000,0.000,0.000,0.000,0,2,0,3,7,255,918,250,234,918
stim,218,218,0,335643.829,0.994,0.041,-0.042,0.093,2483,0,184,2275,181,1108,40,815,0,0.000,1,0,0.292,0.008,-0.280,0.020,-0.080,-0.077,-0.090,0.996,-0.002,0.008,0.002,0.000,0.000,0.000,0.000,0,2,0,3,7,255,918,250,239,918
stim,218,218,0,335648.829,0.994,0.041,-0.042,0.093,2489,0,185,2272,176,1107,40,823,0,0.000,1,0,0.180,0.010,-0.160,0.020,-0.080,-0.077,-0.089,0.995,0.000,0.010,0.002,0.000,0.000,0.000,0.000,0,2,0,3,7,255,918,250,244,918
stim,218,218,0,335653.829,0.994,0.041,-0.042,0.093,2486,0,186,2276,181,1109,43,815,0,0.000,1,0,0.104,0.023,-0.100,0.020,-0.020,-0.076,-0.088,0.997,0.006,0.022,0.002,0.000,0.000,0.000,0.000,0,2,0,3,7,255,918,250,249,918
stim,234,234,0,335658.829,0.994,0.041,-0.042,0.093,2477,0,183,2279,183,1112,40,817,0,0.000,1,0,0.162,0.024,-0.160,0.020,-0.020,-0.076,-0.089,0.997,0.010,0.022,0.004,0.000,0.000,0.000,0.000,0,2,0,3,7,255,918,250,254,918
stim,234,234,0,335663.829,0.994,0.041,-0.042,0.093,2473,0,190,2283,169,1113,37,827,0,0.000,1,0,0.224,0.020,-0.220,-0.040,-0.020,-0.075,-0.091,0.995,0.012,0.016,0.004,0.000,0.000,0.000,0.000,0,2,0,3,7,255,918,250,259,918
stim,266,266,0,335668.829,0.994,0.041,-0.042,0.093,2480,0,186,2269,173,1109,37,819,0,0.000,1,0,0.190,0.010,-0.160,0.020,0.100,-0.077,-0.092,0.995,0.010,-0.002,-0.012,0.000,0.000,0.000,0.000,0,2,0,3,7,255,918,250,264,918
stim,266,266,0,335673.829,0.994,0.041,-0.042,0.093,2491,0,189,2281,175,1110,40,821,0,0.000,1,0,0.060,0.002,-0.020,-0.040,0.040,-0.077,-0.090,0.995,0.000,-0.002,-0.012,0.000,0.000,0.000,0.000,0,2,0,3,7,255,918,250,269,918
stim,266,266,0,335678.829,0.994,0.041,-0.042,0.093,2495,0,189,2279,179,1111,40,823,0,0.000,1,0,0.098,0.006,0.040,-0.040,-0.080,-0.076,-0.090,0.997,0.000,0.006,-0.008,0.000,0.000,0.000,0.000,0,2,0,3,7,255,918,250,274,918
stim,266,266,0,335683.829,0.994,0.041,-0.042,0.093,2471,0,181,2268,176,1111,35,813,0,0.000,1,0,0.049,0.013,-0.020,-0.040,-0.020,-0.076,-0.090,0.996,0.012,0.006,0.000,0.000,0.000,0.000,0.000,0,2,0,3,7,255,918,250,279,918
stim,266,266,0,335688.829,0.994,0.041,-0.042,0.093,2479,0,188,2271,177,1113,43,815,0,0.000,1,0,0.115,0.013,0.040,-0.040,0.100,-0.076,-0.091,0.995,0.012,0.006,0.000,0.000,0.000,0.000,0.000,0,2,0,3,7,255,918,250,284,918
stim,266,266,0,335693.829,0.994,0.041,-0.042,0.093,2479,0,184,2283,181,1107,38,815,0,0.000,1,0,0.110,0.008,0.040,0.020,0.100,-0.078,-0.090,0.996,0.006,0.006,0.000,0.000,0.000,0.000,0.000,0,2,0,3,7,255,918,250,289,918
stim,282,282,0,335698.829,0.994,0.041,-0.042,0.093,2487,0,186,2279,179,1111,41,815,0,0.000,1,0,0.110,0.008,0.100,0.020,0.040,-0.077,-0.090,0.996,-0.002,0.008,0.002,0.000,0.000,0.000,0.000,0,2,0,3,7,255,918,250,294,918
stim,282,282,0,335703.829,0.994,0.041,-0.042,0.093,2476,0,187,2272,173,1108,37,815,0,0.000,1,0,0.092,0.010,0.040,0.020,-0.080,-0.076,-0.090,0.996,-0.002,0.010,0.002,0.000,0.000,0.000,0.000,0,2,0,3,7,255,918,250,299,918
stim,298,298,0,335708.830,0.994,0.041,-0.042,0.093,2473,0,183,2267,175,1104,39,812,0,0.000,1,0,0.060,0.010,0.040,0.020,0.040,-0.076,-0.091,0.995,0.006,0.008,-0.004,0.000,0.000,0.000,0.000,0,2,0,3,7,255,918,250,304,918
stim,298,298,0,335713.829,0.994,0.041,-0.042,0.093,2491,0,189,2277,181,1109,37,813,0,0.000,1,0,0.143,0.010,0.100,0.020,0.100,-0.076,-0.090,0.997,0.008,0.006,-0.004,0.000,0.000,0.000,0.000,0,2,0,3,7,255,918,250,309,918
stim,298,298,0,335718.829,0.994,0.041,-0.042,0.093,2483,0,188,2275,175,1108,36,816,0,0.000,1,0,0.060,0.006,0.040,0.020,0.040,-0.077,-0.091,0.995,0.006,0.000,-0.012,0.000,0.000,0.000,0.000,0,2,0,3,7,255,918,250,314,918
stim,298,298,0,335723.829,0.994,0.041,-0.042,0.093,2483,0,185,2277,173,1109,39,809,0,0.000,1,0,0.134,0.006,0.040,0.080,0.100,-0.077,-0.090,0.997,0.002,0.006,0.006,0.000,0.000,0.000,0.000,0,2,0,3,7,255,918,250,319,918
stim,298,298,0,335728.829,0.994,0.041,-0.042,0.093,2489,0,188,2282,171,1115,39,814,0,0.000,1,0,0.060,0.008,0.040,0.020,0.040,-0.077,-0.089,0.997,0.002,0.008,0.006,0.000,0.000,0.000,0.000,0,2,0,3,7,255,918,250,324,918
stim,298,298,0,335733.829,0.994,0.041,-0.042,0.093,2475,0,184,2273,167,1107,36,809,0,0.000,1,0,0.110,0.010,0.040,0.020,0.100,-0.076,-0.090,0.997,0.006,0.008,0.006,0.000,0.000,0.000,0.000,0,2,0,3,7,255,918,250,329,918
stim,314,314,0,335738.829,0.994,0.041,-0.042,0.093,2475,0,191,2287,175,1116,40,821,0,0.000,1,0,0.110,0.013,0.040,0.020,0.100,-0.077,-0.090,0.997,0.006,0.012,0.006,0.000,0.000,0.000,0.000,0,2,0,3,7,255,918,250,334,918
stim,314,314,0,335743.829,0.994,0.041,-0.042,0.093,2477,0,187,2268,171,1112,37,811,0,0.000,1,0,0.060,0.013,0.040,0.020,0.040,-0.077,-0.089,0.995,0.004,0.012,0.006,0.000,0.000,0.000,0.000,0,2,0,3,7,255,918,250,339,918
stim,314,314,0,335748.829,0.994,0.041,-0.042,0.093,2485,0,185,2285,170,1112,37,821,0,0.000,1,0,0.110,0.016,0.040,0.020,0.100,-0.078,-0.089,0.995,0.000,0.016,-0.008,0.000,0.000,0.000,0.000,0,2,0,3,7,255,918,250,344,918
stim,330,330,0,335753.829,0.994,0.041,-0.042,0.093,2489,0,185,2269,169,1102,39,825,0,0.000,1,0,0.060,0.020,0.040,0.020,0.040,-0.077,-0.088,0.997,0.002,0.020,-0.008,0.000,0.000,0.000,0.000,0,2,0,3,7,255,918,250,349,918
stim,330,330,0,335758.829,0.994,0.041,-0.042,0.093,2476,0,187,2271,179,1111,37,816,0,0.000,1,0,0.115,0.016,0.040,-0.040,0.100,-0.077,-0.090,0.996,-0.002,0.016,-0.004,0.000,0.000,0.000,0.000,0,2,0,3,7,255,918,250,354,918
stim,330,330,0,335763.829,0.994,0.041,-0.042,0.093,2472,0,185,2263,178,1104,40,815,0,0.000,1,0,0.115,0.014,0.040,-0.040,0.100,-0.077,-0.089,0.996,0.002,0.014,0.000,0.000,0.000,0.000,0.000,0,2,0,3,7,255,918,250,359,918
stim,330,330,0,335768.829,0.994,0.041,-0.042,0.093,2472,0,187,2285,184,1116,38,825,0,0.000,1,0,0.060,0.015,-0.020,-0.040,0.040,-0.076,-0.089,0.997,0.004,0.014,0.000,0.000,0.000,0.000,0.000,0,2,0,3,7,255,918,250,364,918
stim,378,378,0,335773.829,0.994,0.041,-0.042,0.093,2488,0,189,2277,175,1107,40,813,0,0.000,1,0,0.060,0.017,-0.020,-0.040,0.040,-0.076,-0.089,0.997,0.010,0.014,0.004,0.000,0.000,0.000,0.000,0,2,0,3,7,255,918,250,369,918
stim,378,378,0,335778.829,0.994,0.041,-0.042,0.093,2485,0,183,2287,180,1111,38,815,0,0.000,1,0,0.110,0.021,-0.100,-0.040,-0.020,-0.077,-0.088,0.998,0.010,0.018,0.006,0.000,0.000,0.000,0.000,0,2,0,3,7,255,918,250,374,918
stim,378,378,0,335783.829,0.994,0.041,-0.042,0.093,2491,0,197,2287,171,1115,39,826,0,0.000,1,0,0.115,0.020,-0.100,-0.040,0.040,-0.076,-0.089,0.996,0.008,0.018,0.004,0.000,0.000,0.000,0.000,0,2,0,3,7,255,918,250,379,918
stim,378,378,0,335788.829,0.994,0.041,-0.042,0.093,2486,0,189,2285,170,1108,39,821,0,0.000,1,0,0.110,0.019,-0.100,-0.040,-0.020,-0.077,-0.089,0.996,0.006,0.018,0.000,0.000,0.000,0.000,0.000,0,2,0,3,7,255,918,250,384,918
stim,378,378,0,335793.829,0.994,0.041,-0.042,0.093,2499,0,184,2282,173,1113,41,813,0,0.000,1,0,0.170,0.015,-0.160,-0.040,0.040,-0.077,-0.089,0.996,0.006,0.014,0.000,0.000,0.000,0.000,0.000,0,2,0,3,7,255,918,250,389,918
stim,378,378,0,335798.829,0.994,0.041,-0.042,0.093,2484,0,187,2270,173,1105,36,820,0,0.000,1,0,0.166,0.015,-0.160,-0.040,-0.020,-0.077,-0.089,0.997,0.006,0.014,0.000,0.000,0.000,0.000,0.000,0,2,0,3,7,255,918,250,394,918
stim,394,394,0,335803.829,0.994,0.041,-0.042,0.093,2491,0,188,2281,175,1109,39,815,0,0.000,1,0,0.166,0.015,-0.160,-0.040,-0.020,-0.077,-0.089,0.996,0.004,0.014,0.000,0.000,0.000,0.000,0.000,0,2,0,3,7,255,918,250,399,918
stim,394,394,0,335808.829,0.994,0.041,-0.042,0.093,2487,0,184,2285,177,1115,41,815,0,0.000,1,0,0.224,0.013,-0.220,0.020,0.040,-0.075,-0.090,0.996,0.006,0.012,0.000,0.000,0.000,0.000,0.000,0,2,0,3,7,255,918,250,404,918
stim,394,394,0,335813.829,0.994,0.041,-0.042,0.093,2484,0,189,2272,175,1113,35,821,0,0.000,1,0,0.222,0.017,-0.220,0.020,-0.020,-0.075,-0.090,0.996,0.016,0.006,-0.004,0.000,0.000,0.000,0.000,0,2,0,3,7,255,918,250,409,918
stim,394,394,0,335818.829,0.994,0.041,-0.042,0.093,2479,0,189,2271,169,1113,37,816,0,0.000,1,0,0.341,0.017,-0.340,0.020,-0.020,-0.077,-0.089,0.997,0.016,0.006,0.000,0.000,0.000,0.000,0.000,0,2,0,3,7,255,918,250,414,918
stim,394,394,0,335823.829,0.994,0.041,-0.042,0.093,2486,0,188,2271,172,1107,35,816,0,0.000,1,0,0.237,0.013,-0.220,-0.040,-0.080,-0.077,-0.089,0.995,0.004,0.012,-0.004,0.000,0.000,0.000,0.000,0,2,0,3,7,255,918,250,419,918
stim,394,394,0,335828.829,0.994,0.041,-0.042,0.093,2476,0,191,2267,174,1115,41,821,0,0.000,1,0,0.224,0.012,-0.220,-0.040,-0.020,-0.078,-0.090,0.997,-0.002,0.012,0.006,0.000,0.000,0.000,0.000,0,2,0,3,7,255,918,250,424,918
stim,410,410,0,335833.829,0.994,0.041,-0.042,0.093,2480,0,187,2277,179,1113,37,819,0,0.000,1,0,0.222,0.008,-0.220,0.020,-0.020,-0.077,-0.090,0.995,-0.002,0.008,-0.008,0.000,0.000,0.000,0.000,0,2,0,3,7,255,918,250,429,918
stim,410,410,0,335838.829,0.994,0.041,-0.042,0.093,2480,0,188,2285,173,1110,41,815,0,0.000,1,0,0.235,0.006,-0.220,0.080,-0.020,-0.077,-0.090,0.996,0.002,0.006,-0.004,0.000,0.000,0.000,0.000,0,2,0,3,7,255,918,250,434,918
stim,410,410,0,335843.829,0.994,0.041,-0.042,0.093,2509,0,184,2281,169,1113,44,815,0,0.000,1,0,0.235,0.006,-0.220,0.020,-0.080,-0.076,-0.090,0.996,0.002,0.006,-0.004,0.000,0.000,0.000,0.000,0,2,0,3,7,255,918,250,439,918
stim,410,410,0,335848.829,0.994,0.041,-0.042,0.093,2482,0,187,2271,180,1111,37,820,0,0.000,1,0,0.180,0.006,-0.160,0.020,-0.080,-0.077,-0.090,0.997,0.002,0.006,-0.004,0.000,0.000,0.000,0.000,0,2,0,3,7,255,918,250,444,918
stim,427,427,0,335853.829,0.994,0.041,-0.042,0.093,2488,0,185,2277,176,1112,33,821,0,0.000,1,0,0.180,0.010,-0.160,0.020,-0.080,-0.075,-0.090,0.995,0.008,0.006,-0.004,0.000,0.000,0.000,0.000,0,2,0,3,7,255,918,250,449,918
stim,427,427,0,335858.829,0.994,0.041,-0.042,0.093,2474,0,186,2246,187,1123,35,821,0,0.000,1,0,0.247,0.008,-0.220,0.080,-0.080,-0.077,-0.089,0.996,-0.002,0.008,-0.004,0.000,0.000,0.000,0.000,0,2,0,3,7,255,918,250,454,918
stim,442,442,0,335863.829,0.994,0.041,-0.042,0.093,2493,0,188,2281,183,1111,41,816,0,0.000,1,0,0.180,0.012,-0.160,0.020,-0.080,-0.077,-0.089,0.996,-0.002,0.012,-0.004,0.000,0.000,0.000,0.000,0,2,0,3,7,255,918,250,459,918
stim,442,442,0,335868.829,0.994,0.041,-0.042,0.093,2478,0,183,2289,189,1111,39,820,0,0.000,1,0,0.222,0.012,-0.220,0.020,-0.020,-0.077,-0.089,0.996,-0.002,0.012,-0.004,0.000,0.000,0.000,0.000,0,2,0,3,7,255,918,250,464,918
stim,442,442,0,335873.829,0.994,0.041,-0.042,0.093,2505,0,185,2276,199,1109,40,824,0,0.000,1,0,0.235,0.013,-0.220,0.080,-0.020,-0.077,-0.089,0.996,0.004,0.012,0.000,0.000,0.000,0.000,0.000,0,2,0,3,7,255,918,250,469,918
stim,474,474,0,335878.829,0.994,0.041,-0.042,0.093,2473,0,183,2267,185,1110,31,815,0,0.000,1,0,0.222,0.013,-0.220,0.020,-0.020,-0.077,-0.091,0.996,0.004,0.012,0.000,0.000,0.000,0.000,0.000,0,2,0,3,7,255,918,250,474,918
stim,474,474,0,335883.829,0.994,0.041,-0.042,0.093,2487,0,184,2280,185,1112,41,814,0,0.000,1,0,0.222,0.007,-0.220,0.020,-0.020,-0.076,-0.090,0.996,0.004,0.006,-0.002,0.000,0.000,0.000,0.000,0,2,0,3,7,255,918,250,479,918
stim,474,474,0,335888.829,0.994,0.041,-0.042,0.093,2477,0,187,2275,191,1103,36,813,0,0.000,1,0,0.162,0.004,-0.160,0.020,-0.020,-0.077,-0.090,0.995,-0.004,0.002,-0.004,0.000,0.000,0.000,0.000,0,2,0,3,7,255,918,250,484,918
stim,474,474,0,335893.829,0.994,0.041,-0.042,0.093,2487,0,188,2277,197,1111,41,815,0,0.000,1,0,0.162,0.003,-0.160,0.020,-0.020,-0.077,-0.090,0.996,0.002,0.002,-0.004,0.000,0.000,0.000,0.000,0,2,0,3,7,255,918,250,489,918
stim,494,494,0,335898.829,0.994,0.041,-0.042,0.093,2484,0,185,2271,192,1104,36,819,0,0.000,1,0,0.110,0.002,-0.100,0.020,0.040,-0.077,-0.090,0.995,0.000,0.002,-0.008,0.000,0.000,0.000,0.000,0,2,0,3,7,255,918,250,494,918
stim,494,494,0,335903.829,0.994,0.041,-0.042,0.093,2491,0,185,2277,189,1111,39,820,0,0.000,1,0,0.110,0.002,-0.100,-0.040,-0.020,-0.077,-0.091,0.996,0.000,0.002,-0.002,0.000,0.000,0.000,0.000,0,2,0,3,7,255,918,250,499,918
stim,494,494,0,335908.830,0.994,0.041,-0.042,0.093,2474,0,184,2268,205,1111,42,819,0,0.000,1,0,0.060,0.004,-0.020,-0.040,0.040,-0.077,-0.092,0.996,0.000,-0.004,-0.002,0.000,0.000,0.000,0.000,0,2,0,3,7,255,918,250,504,918
stim,494,494,0,335913.829,0.994,0.041,-0.042,0.093,2495,0,184,2283,202,1113,37,815,0,0.000,1,0,0.069,0.007,0.040,-0.040,0.040,-0.078,-0.090,0.996,-0.006,-0.004,-0.002,0.000,0.000,0.000,0.000,0,2,0,3,7,255,918,250,509,918
stim,494,494,0,335918.829,0.994,0.041,-0.042,0.093,2489,0,188,2272,199,1109,36,812,0,0.000,1,0,0.069,0.006,0.040,-0.040,0.040,-0.076,-0.090,0.996,-0.006,0.002,0.002,0.000,0.000,0.000,0.000,0,2,0,3,7,255,918,250,514,918
stim,494,494,0,335923.829,0.994,0.041,-0.042,0.093,2483,0,184,2272,205,1113,40,823,0,0.000,1,0,0.060,0.006,0.040,-0.040,-0.020,-0.077,-0.089,0.996,0.004,0.004,0.002,0.000,0.000,0.000,0.000,0,2,0,3,7,255,918,250,519,918
stim,506,506,0,335928.829,0.994,0.041,-0.042,0.093,2475,0,185,2269,211,1106,39,811,0,0.000,1,0,0.049,0.008,0.040,0.020,-0.020,-0.076,-0.090,0.997,0.006,0.006,0.002,0.000,0.000,0.000,0.000,0,2,0,3,7,255,918,250,524,918
stim,506,506,0,335933.829,0.994,0.041,-0.042,0.093,2475,0,189,2278,211,1123,37,827,0,0.000,1,0,0.069,0.007,0.040,-0.040,0.040,-0.077,-0.091,0.996,0.004,0.006,0.002,0.000,0.000,0.000,0.000,0,2,0,3,7,255,918,250,529,918
stim,506,506,0,335938.829,0.994,0.041,-0.042,0.093,2491,0,187,2279,211,1109,39,816,0,0.000,1,0,0.060,0.010,0.040,0.020,0.040,-0.076,-0.089,0.995,0.008,0.006,-0.002,0.000,0.000,0.000,0.000,0,2,0,3,7,255,918,250,534,918
stim,506,506,0,335943.829,0.994,0.041,-0.042,0.093,2479,0,189,2271,223,1110,41,819,0,0.000,1,0,0.060,0.013,-0.040,0.020,0.040,-0.076,-0.089,0.996,0.008,0.010,-0.002,0.000,0.000,0.000,0.000,0,2,0,3,7,255,918,250,539,918
stim,526,526,0,335948.829,0.994,0.041,-0.042,0.093,2492,0,197,2272,227,1109,37,823,0,0.000,1,0,0.104,0.013,0.100,0.020,-0.020,-0.077,-0.090,0.997,0.008,0.010,0.000,0.000,0.000,0.000,0.000,0,2,0,3,7,255,918,250,544,918
stim,526,526,0,335953.829,0.994,0.041,-0.042,0.093,2484,0,190,2271,232,1111,41,816,0,0.000,1,0,0.060,0.010,0.040,0.020,0.040,-0.077,-0.089,0.996,-0.002,0.010,0.000,0.000,0.000,0.000,0.000,0,2,0,3,7,255,918,250,549,918
stim,538,538,0,335958.829,0.994,0.041,-0.042,0.093,2486,0,186,2281,233,1115,42,815,0,0.000,1,0,0.060,0.003,0.040,-0.040,-0.020,-0.077,-0.091,0.996,-0.002,0.002,-0.002,0.000,0.000,0.000,0.000,0,2,0,3,7,255,918,250,554,918
stim,538,538,0,335963.829,0.994,0.041,-0.042,0.093,2475,0,189,2287,237,1123,37,825,0,0.000,1,0,0.060,0.004,-0.040,-0.040,-0.020,-0.076,-0.090,0.997,-0.002,0.004,-0.002,0.000,0.000,0.000,0.000,0,2,0,3,7,255,918,250,559,918
stim,560,560,0,335968.829,0.994,0.041,-0.042,0.093,2480,0,196,2271,233,1109,41,821,0,0.000,1,0,0.049,0.004,0.040,0.020,-0.020,-0.077,-0.090,0.996,0.002,0.004,0.002,0.000,0.000,0.000,0.000,0,2,0,3,7,255,918,250,564,918
stim,560,560,0,335973.829,0.994,0.041,-0.042,0.093,2480,0,184,2287,223,1109,37,822,0,0.000,1,0,0.049,0.011,0.040,0.020,-0.020,-0.076,-0.090,0.996,0.010,0.004,0.002,0.000,0.000,0.000,0.000,0,2,0,3,7,255,918,250,569,918
stim,561,561,0,335978.829,0.994,0.041,-0.042,0.093,2493,0,199,2289,217,1109,37,825,0,0.000,1,0,0.060,0.006,0.040,0.020,0.040,-0.077,-0.090,0.996,0.002,0.006,0.002,0.000,0.000,0.000,0.000,0,2,0,3,7,255,918,250,574,918
stim,561,561,0,335983.829,0.994,0.041,-0.042,0.093,2479,0,185,2272,217,1113,37,821,0,0.000,1,0,0.060,0.006,-0.040,0.020,0.040,-0.077,-0.090,0.997,0.002,0.006,0.002,0.000,0.000,0.000,0.000,0,2,0,3,7,255,918,250,579,918
stim,561,561,0,335988.829,0.994,0.041,-0.042,0.093,2480,0,187,2270,221,1111,36,821,0,0.000,1,0,0.110,0.006,-0.100,0.020,0.040,-0.076,-0.090,0.997,0.002,0.006,0.006,0.000,0.000,0.000,0.000,0,2,0,3,7,255,918,250,584,918
stim,561,561,0,335993.829,0.994,0.041,-0.042,0.093,2483,0,187,2271,224,1111,37,821,0,0.000,1,0,0.110,0.010,-0.100,0.020,0.040,-0.075,-0.090,0.995,0.008,0.006,0.006,0.000,0.000,0.000,0.000,0,2,0,3,7,255,918,250,589,918
stim,593,593,0,335998.830,0.994,0.041,-0.042,0.093,2487,0,187,2275,219,1109,37,816,0,0.000,1,0,0.110,0.010,-0.100,0.020,0.040,-0.077,-0.089,0.997,0.008,0.006,0.006,0.000,0.000,0.000,0.000,0,2,0,3,7,255,918,250,594,918
stim,593,593,0,336003.829,0.994,0.041,-0.042,0.093,2485,0,187,2276,228,1107,37,816,0,0.000,1,0,0.035,0.013,-0.020,0.020,-0.020,-0.077,-0.089,0.998,0.004,0.012,0.010,0.000,0.000,0.000,0.000,0,2,0,3,7,255,918,250,599,918
stim,593,593,0,336008.829,0.994,0.041,-0.042,0.093,2501,0,185,2277,234,1111,41,821,0,0.000,1,0,0.104,0.016,-0.100,0.020,-0.020,-0.077,-0.086,0.996,0.004,0.016,0.010,0.000,0.000,0.000,0.000,0,2,0,3,7,255,918,250,604,918
stim,593,593,0,336013.829,0.994,0.041,-0.042,0.093,2489,0,186,2281,233,1109,40,818,0,0.000,1,0,0.104,0.016,-0.100,0.020,-0.020,-0.076,-0.089,0.996,0.008,0.014,0.000,0.000,0.000,0.000,0.000,0,2,0,3,7,255,918,250,609,918
stim,593,593,0,336018.829,0.994,0.041,-0.042,0.093,2493,0,189,2275,240,1107,43,819,0,0.000,1,0,0.115,0.016,-0.100,-0.040,0.040,-0.077,-0.089,0.996,0.008,0.014,0.000,0.000,0.000,0.000,0.000,0,2,0,3,7,255,918,250,614,918
stim,593,593,0,336023.829,0.994,0.041,-0.042,0.093,2480,0,186,2285,228,1110,43,815,0,0.000,1,0,0.222,0.010,-0.220,0.020,-0.020,-0.077,-0.089,0.995,0.002,0.010,0.000,0.000,0.000,0.000,0.000,0,2,0,3,7,255,918,250,619,918
stim,602,602,0,336028.829,0.994,0.041,-0.042,0.093,2485,0,185,2283,227,1113,40,817,0,0.000,1,0,0.222,0.008,-0.220,0.020,-0.020,-0.076,-0.089,0.996,0.002,0.008,-0.004,0.000,0.000,0.000,0.000,0,2,0,3,7,255,918,250,624,918
stim,602,602,0,336033.829,0.994,0.041,-0.042,0.093,2488,0,186,2277,219,1111,41,816,0,0.000,1,0,0.166,0.014,-0.160,0.020,0.040,-0.075,-0.089,0.996,0.012,0.008,-0.004,0.000,0.000,0.000,0.000,0,2,0,3,7,255,918,250,629,918
stim,627,627,0,336038.829,0.994,0.041,-0.042,0.093,2495,0,191,2287,230,1107,39,823,0,0.000,1,0,0.222,0.016,-0.220,0.020,-0.020,-0.076,-0.089,0.996,0.012,0.010,0.000,0.000,0.000,0.000,0.000,0,2,0,3,7,255,918,250,634,918
stim,627,627,0,336043.829,0.994,0.041,-0.042,0.093,2483,0,187,2270,230,1112,37,821,0,0.000,1,0,0.286,0.016,-0.280,-0.040,0.040,-0.076,-0.089,0.996,0.012,0.010,0.000,0.000,0.000,0.000,0.000,0,2,0,3,7,255,918,250,639,918
stim,627,627,0,336048.829,0.994,0.041,-0.042,0.093,2480,0,183,2281,234,1108,40,821,0,0.000,1,0,0.224,0.013,-0.220,0.020,0.040,-0.076,-0.090,0.996,0.012,0.006,0.000,0.000,0.000,0.000,0.000,0,2,0,3,7,255,918,250,644,918
stim,627,627,0,336053.829,0.994,0.041,-0.042,0.093,2475,0,186,2253,235,1116,39,821,0,0.000,1,0,0.224,0.006,-0.220,0.020,0.040,-0.077,-0.091,0.996,0.006,0.002,0.000,0.000,0.000,0.000,0.000,0,2,0,3,7,255,918,250,649,918
stim,628,628,0,336058.829,0.994,0.041,-0.042,0.093,2491,0,185,2289,229,1109,36,821,0,0.000,1,0,0.110,0.002,-0.100,0.020,0.040,-0.077,-0.089,0.996,0.000,0.002,0.002,0.000,0.000,0.000,0.000,0,2,0,3,7,255,918,250,654,918
stim,628,628,0,336063.829,0.994,0.041,-0.042,0.093,2489,0,188,2280,226,1112,42,817,0,0.000,1,0,0.166,0.008,-0.160,-0.040,-0.020,-0.077,-0.089,0.996,0.000,0.008,0.002,0.000,0.000,0.000,0.000,0,2,0,3,7,255,918,250,659,918
stim,628,628,0,336068.829,0.994,0.041,-0.042,0.093,2494,0,189,2281,221,1112,41,824,0,0.000,1,0,0.170,0.008,-0.160,-0.040,0.040,-0.077,-0.090,0.996,0.000,0.008,0.002,0.000,0.000,0.000,0.000,0,2,0,3,7,255,918,250,664,918
stim,666,666,0,336073.829,0.994,0.041,-0.042,0.093,2479,0,185,2273,219,1109,37,817,0,0.000,1,0,0.104,0.008,-0.100,0.020,-0.020,-0.077,-0.089,0.996,0.002,0.008,0.000,0.000,0.000,0.000,0.000,0,2,0,3,7,255,918,250,669,918
stim,666,666,0,336078.829,0.994,0.041,-0.042,0.093,2493,0,189,2276,221,1111,41,816,0,0.000,1,0,0.130,0.000,-0.100,0.020,-0.080,-0.077,-0.090,0.997,0.000,0.000,0.002,0.000,0.000,0.000,0.000,0,2,0,3,7,255,918,250,674,918
stim,666,666,0,336083.829,0.994,0.041,-0.042,0.093,2480,0,185,2276,216,1107,39,824,0,0.000,1,0,0.166,0.006,-0.160,-0.040,-0.020,-0.076,-0.089,0.995,0.002,0.006,0.000,0.000,0.000,0.000,0.000,0,2,0,3,7,255,918,250,679,918
stim,666,666,0,336088.830,0.994,0.041,-0.042,0.093,2488,0,188,2281,216,1107,41,819,0,0.000,1,0,0.104,0.002,-0.100,0.020,-0.020,-0.077,-0.090,0.995,0.000,0.002,-0.008,0.000,0.000,0.000,0.000,0,2,0,3,7,255,918,250,684,918
stim,666,666,0,336093.829,0.994,0.041,-0.042,0.093,2474,0,187,2271,211,1111,40,817,0,0.000,1,0,0.162,0.006,-0.160,0.020,-0.020,-0.077,-0.089,0.996,0.002,0.006,-0.008,0.000,0.000,0.000,0.000,0,2,0,3,7,255,918,250,689,918
stim,666,666,0,336098.829,0.994,0.041,-0.042,0.093,2499,0,185,2285,217,1104,44,819,0,0.000,1,0,0.162,0.003,-0.160,0.020,-0.020,-0.076,-0.090,0.996,0.002,0.002,-0.004,0.000,0.000,0.000,0.000,0,2,0,3,7,255,918,250,694,918
stim,682,682,0,336103.829,0.994,0.041,-0.042,0.093,2491,0,189,2277,211,1109,39,816,0,0.000,1,0,0.162,0.004,-0.160,0.020,-0.020,-0.076,-0.090,0.996,0.004,-0.002,0.002,0.000,0.000,0.000,0.000,0,2,0,3,7,255,918,250,699,918
stim,682,682,0,336108.830,0.994,0.041,-0.042,0.093,2475,0,185,2269,217,1105,39,815,0,0.000,1,0,0.162,0.004,-0.160,0.020,-0.020,-0.076,-0.090,0.996,0.004,-0.002,0.002,0.000,0.000,0.000,0.000,0,2,0,3,7,255,918,250,704,918
stim,698,698,0,336113.829,0.994,0.041,-0.042,0.093,2505,0,187,2285,213,1111,41,823,0,0.000,1,0,0.166,0.004,-0.160,0.020,0.040,-0.077,-0.089,0.997,0.004,0.002,0.002,0.000,0.000,0.000,0.000,0,2,0,3,7,255,918,250,709,918
stim,698,698,0,336118.829,0.994,0.041,-0.042,0.093,2478,0,185,2272,219,1110,37,821,0,0.000,1,0,0.104,0.003,-0.100,0.020,-0.020,-0.077,-0.090,0.995,-0.002,0.002,0.002,0.000,0.000,0.000,0.000,0,2,0,3,7,255,918,250,714,918
stim,698,698,0,336123.829,0.994,0.041,-0.042,0.093,2480,0,183,2279,215,1113,40,819,0,0.000,1,0,0.104,0.006,-0.100,0.020,-0.020,-0.076,-0.089,0.996,-0.002,0.006,-0.004,0.000,0.000,0.000,0.000,0,2,0,3,7,255,918,250,719,918
stim,698,698,0,336128.829,0.994,0.041,-0.042,0.093,2474,0,185,2264,219,1115,37,823,0,0.000,1,0,0.049,0.008,-0.020,0.020,0.040,-0.076,-0.089,0.996,0.006,0.006,-0.004,0.000,0.000,0.000,0.000,0,2,0,3,7,255,918,250,724,918
stim,714,714,0,336133.829,0.994,0.041,-0.042,0.093,2493,0,185,2280,220,1104,39,818,0,0.000,1,0,0.115,0.008,-0.100,-0.040,0.040,-0.077,-0.090,0.995,0.006,0.006,-0.004,0.000,0.000,0.000,0.000,0,2,0,3,7,255,918,250,729,918
stim,714,714,0,336138.829,0.994,0.041,-0.042,0.093,2483,0,185,2272,214,1112,35,814,0,0.000,1,0,0.049,0.004,-0.020,-0.040,-0.020,-0.077,-0.090,0.997,0.002,0.004,-0.004,0.000,0.000,0.000,0.000,0,2,0,3,7,255,918,250,734,918
stim,714,714,0,336143.829,0.994,0.041,-0.042,0.093,2493,0,186,2287,214,1112,39,815,0,0.000,1,0,0.147,0.002,-0.100,-0.040,0.100,-0.077,-0.090,0.996,0.000,-0.002,0.002,0.000,0.000,0.000,0.000,0,2,0,3,7,255,918,250,739,918
stim,714,714,0,336148.829,0.994,0.041,-0.042,0.093,2494,0,187,2277,215,1108,37,822,0,0.000,1,0,0.143,0.000,-0.100,0.020,0.100,-0.077,-0.090,0.997,0.000,0.000,0.006,0.000,0.000,0.000,0.000,0,2,0,3,7,255,918,250,744,918
stim,731,731,0,336153.829,0.994,0.041,-0.042,0.093,2478,0,185,2281,215,1111,37,823,0,0.000,1,0,0.104,0.002,-0.020,0.020,0.100,-0.076,-0.090,0.996,0.000,-0.002,0.002,0.000,0.000,0.000,0.000,0,2,0,3,7,255,918,250,749,918
stim,731,731,0,336158.829,0.994,0.041,-0.042,0.093,2475,0,189,2264,215,1118,38,829,0,0.000,1,0,0.147,0.004,0.100,-0.100,0.040,-0.077,-0.089,0.996,-0.004,0.000,-0.004,0.000,0.000,0.000,0.000,0,2,0,3,7,255,918,250,754,918
stim,746,746,0,336163.829,0.994,0.041,-0.042,0.093,2477,0,183,2279,215,1110,40,821,0,0.000,1,0,0.110,0.006,0.040,0.020,0.100,-0.077,-0.090,0.997,-0.004,0.004,-0.004,0.000,0.000,0.000,0.000,0,2,0,3,7,255,918,250,759,918
stim,746,746,0,336168.829,0.994,0.041,-0.042,0.093,2491,0,189,2277,205,1112,40,820,0,0.000,1,0,0.110,0.006,-0.020,-0.040,0.100,-0.077,-0.090,0.996,-0.004,0.004,0.002,0.000,0.000,0.000,0.000,0,2,0,3,7,255,918,250,764,918
stim,762,762,0,336173.829,0.994,0.041,-0.042,0.093,2494,0,187,2278,209,1113,43,821,0,0.000,1,0,0.110,0.006,-0.020,-0.040,0.100,-0.078,-0.090,0.996,-0.004,0.004,0.002,0.000,0.000,0.000,0.000,0,2,0,3,7,255,918,250,769,918
stim,762,762,0,336178.829,0.994,0.041,-0.042,0.093,2483,0,188,2284,209,1113,42,816,0,0.000,1,0,0.115,0.004,0.040,-0.040,0.100,-0.077,-0.089,0.997,0.000,0.004,0.002,0.000,0.000,0.000,0.000,0,2,0,3,7,255,918,250,774,918
stim,778,778,0,336183.829,0.994,0.041,-0.042,0.093,2490,0,186,2277,203,1111,41,816,0,0.000,1,0,0.147,0.004,0.100,-0.040,0.100,-0.077,-0.090,0.997,0.002,0.004,0.006,0.000,0.000,0.000,0.000,0,2,0,3,7,255,918,250,779,918
stim,778,778,0,336188.830,0.994,0.041,-0.042,0.093,2491,0,189,2279,201,1111,36,823,0,0.000,1,0,0.069,0.006,0.040,-0.040,0.040,-0.076,-0.089,0.996,0.002,0.006,0.006,0.000,0.000,0.000,0.000,0,2,0,3,7,255,918,250,784,918
stim,778,778,0,336193.829,0.994,0.041,-0.042,0.093,2484,0,188,2283,199,1108,39,815,0,0.000,1,0,0.060,0.008,-0.020,-0.040,0.040,-0.076,-0.088,0.995,0.006,0.006,0.000,0.000,0.000,0.000,0.000,0,2,0,3,7,255,918,250,789,918
stim,778,778,1,336198.829,0.994,0.041,-0.042,0.093,2485,0,191,2271,200,1111,41,823,0,0.000,1,0,0.115,0.017,-0.100,-0.040,0.040,-0.077,-0.088,0.997,0.006,0.016,0.000,0.000,0.000,0.000,0.000,0,2,1,3,7,255,918,250,794,918
stim,778,778,1,336203.829,0.994,0.041,-0.042,0.093,2483,0,182,2280,191,1111,41,823,0,0.000,1,0,0.049,0.016,-0.020,-0.040,-0.020,-0.077,-0.089,0.997,0.004,0.016,0.004,0.000,0.000,0.000,0.000,0,2,1,3,7,255,918,250,799,918
stim,778,778,1,336208.829,0.994,0.041,-0.042,0.093,2485,0,187,2281,189,1117,41,821,0,0.000,1,0,0.115,0.012,-0.100,-0.040,0.040,-0.079,-0.089,0.997,-0.002,0.012,0.006,0.000,0.000,0.000,0.000,0,2,1,3,7,255,918,250,804,918
stim,794,794,1,336213.829,0.994,0.041,-0.042,0.093,2475,0,183,2267,189,1103,37,814,0,0.000,1,0,0.166,0.012,-0.160,-0.040,-0.020,-0.077,-0.089,0.997,-0.002,0.012,0.006,0.000,0.000,0.000,0.000,0,2,1,3,7,255,918,250,809,918
stim,794,794,1,336218.829,0.994,0.041,-0.042,0.093,2488,0,185,2269,189,1110,37,820,0,0.000,1,0,0.110,0.010,-0.100,-0.040,-0.020,-0.076,-0.089,0.997,-0.002,0.010,0.008,0.000,0.000,0.000,0.000,0,2,1,3,7,255,918,250,814,918
stim,794,794,1,336223.829,0.994,0.041,-0.042,0.093,2485,0,183,2279,190,1113,41,813,0,0.000,1,0,0.166,0.012,-0.160,-0.040,-0.020,-0.077,-0.088,0.996,-0.002,0.012,0.006,0.000,0.000,0.000,0.000,0,2,1,3,7,255,918,250,819,918
stim,794,794,1,336228.829,0.994,0.041,-0.042,0.093,2487,0,185,2279,183,1108,36,820,0,0.000,1,0,0.162,0.010,-0.160,0.020,-0.020,-0.076,-0.090,0.994,0.008,0.006,-0.004,0.000,0.000,0.000,0.000,0,2,1,3,7,255,918,250,824,918
stim,810,810,1,336233.829,0.994,0.041,-0.042,0.093,2493,0,187,2279,191,1115,43,823,0,0.000,1,0,0.180,0.003,-0.160,0.020,-0.080,-0.077,-0.090,0.996,-0.002,0.002,-0.004,0.000,0.000,0.000,0.000,0,2,1,3,7,255,918,250,829,918
stim,810,810,1,336238.829,0.994,0.041,-0.042,0.093,2493,0,189,2279,216,1109,40,820,0,0.000,1,0,0.115,0.003,-0.100,-0.040,0.040,-0.077,-0.089,0.997,-0.002,0.002,-0.004,0.000,0.000,0.000,0.000,0,2,1,3,7,255,918,250,834,918
stim,828,828,1,336243.829,0.994,0.041,-0.042,0.093,2487,0,185,2278,190,1111,39,814,0,0.000,1,0,0.134,0.012,-0.100,-0.040,-0.080,-0.076,-0.086,0.998,-0.002,0.012,0.006,0.000,0.000,0.000,0.000,0,2,1,3,7,255,918,250,839,918
stim,828,828,1,336248.829,0.994,0.041,-0.042,0.093,2475,0,189,2259,180,1111,44,822,0,0.000,1,0,0.477,0.022,-0.400,0.020,-0.260,-0.073,-0.093,0.996,0.018,0.012,0.006,0.000,0.000,0.000,0.000,0,2,1,3,7,255,918,250,844,918
stim,828,828,1,336253.829,0.994,0.041,-0.042,0.093,2486,0,185,2280,237,1115,33,820,0,0.000,1,0,0.565,0.040,-0.220,0.020,0.520,-0.078,-0.094,0.994,0.018,-0.036,-0.004,0.000,0.000,0.000,0.000,0,2,1,3,7,255,918,250,849,918
stim,828,828,1,336258.829,0.994,0.041,-0.042,0.093,2491,0,185,2281,173,1111,37,821,0,0.000,1,0,0.162,0.040,0.160,0.020,-0.020,-0.082,-0.075,0.999,-0.018,-0.036,-0.004,0.000,0.000,0.000,0.000,0,2,1,3,7,255,918,250,854,918
stim,828,828,1,336263.829,0.994,0.041,-0.042,0.093,2495,0,188,2285,219,1113,36,821,0,0.000,1,0,1.512,0.040,-0.760,0.140,-1.300,-0.069,-0.106,0.994,-0.018,-0.036,-0.010,0.000,0.000,0.000,0.000,0,2,1,3,7,255,918,250,859,918
stim,874,874,1,336268.829,0.994,0.041,-0.042,0.093,2475,0,188,2276,187,1109,37,811,0,0.000,1,0,2.074,0.100,0.700,-0.220,1.940,-0.079,-0.080,0.999,-0.004,0.100,0.018,0.000,0.000,0.000,0.000,0,2,1,3,7,255,918,250,864,918
stim,874,874,1,336273.829,0.994,0.041,-0.042,0.093,2479,0,185,2275,215,1111,38,815,0,0.000,1,0,2.813,0.038,-1.920,0.260,-2.040,-0.075,-0.093,0.993,0.006,-0.038,-0.010,0.000,0.000,0.000,0.000,0,2,1,3,7,255,918,250,869,918
stim,874,874,1,336278.829,0.994,0.041,-0.042,0.093,2487,0,186,2279,197,1106,37,825,0,0.000,1,0,3.293,0.004,2.160,-0.160,2.480,-0.081,-0.090,0.996,-0.004,0.002,0.004,0.000,0.000,0.000,0.000,0,2,1,3,7,255,918,250,874,918
stim,874,874,1,336283.829,0.994,0.041,-0.042,0.093,2488,0,181,2279,267,1112,35,821,0,0.000,1,0,4.538,0.007,-3.140,0.320,-3.260,-0.073,-0.090,0.997,0.006,-0.004,0.004,0.000,0.000,0.000,0.000,0,2,1,3,7,255,918,250,879,918
stim,874,874,1,336288.829,0.994,0.041,-0.042,0.093,2483,0,187,2275,174,1109,44,821,0,0.000,1,0,4.684,0.020,3.140,-0.720,3.400,-0.076,-0.081,0.995,0.020,0.002,0.004,0.000,0.000,0.000,0.000,0,2,1,3,7,255,918,250,884,918
stim,874,874,1,336293.829,0.994,0.041,-0.042,0.093,2480,0,187,2279,232,1112,39,821,0,0.000,1,0,4.745,0.020,-3.320,1.540,-3.020,-0.081,-0.112,0.995,0.020,-0.004,0.004,0.000,0.000,0.000,0.000,0,2,1,3,7,255,918,250,889,918
stim,892,892,1,336298.829,0.994,0.041,-0.042,0.093,2477,0,183,2270,285,1111,35,821,0,0.000,1,0,3.305,0.088,1.260,-2.360,1.940,-0.066,-0.058,1.001,0.020,0.086,0.014,0.000,0.000,0.000,0.000,0,2,1,3,7,255,918,250,894,918
stim,892,892,1,336303.829,0.994,0.041,-0.042,0.093,2487,0,185,2282,293,1115,37,815,0,0.000,1,0,2.789,0.220,0.700,2.700,-0.020,-0.091,-0.114,0.981,-0.078,-0.206,0.014,0.000,0.000,0.000,0.000,0,2,1,3,7,255,918,250,899,918
stim,892,892,1,336308.830,0.994,0.041,-0.042,0.093,2475,0,184,2267,284,1112,39,811,0,0.000,1,0,3.366,0.158,-2.280,-1.700,-1.800,-0.063,-0.089,1.025,0.158,0.002,0.018,0.000,0.000,0.000,0.000,0,2,1,3,7,255,918,250,904,918
stim,893,893,1,336313.829,0.994,0.041,-0.042,0.093,2485,0,185,2282,429,1109,43,814,0,0.000,1,0,1.537,0.026,0.460,-0.280,1.440,-0.075,-0.069,0.965,0.026,0.002,-0.114,0.000,0.000,0.000,0.000,0,2,1,3,7,255,918,250,909,918
stim,893,893,1,336318.829,0.994,0.041,-0.042,0.093,2485,0,183,2279,985,1108,39,816,0,0.000,1,0,2.443,0.026,1.200,1.980,0.780,-0.086,-0.105,1.003,0.026,0.002,0.092,0.000,0.000,0.000,0.000,0,2,1,3,7,255,918,250,914,918
stim,893,893,1,336323.829,0.994,0.041,-0.042,0.093,2479,0,185,2281,587,1107,39,820,0,0.000,1,0,2.691,0.113,-1.260,-1.620,-1.740,-0.078,-0.104,1.021,-0.016,-0.112,0.092,0.000,0.000,0.000,0.000,0,2,1,3,7,255,918,250,1,918
stim,906,906,1,336328.829,0.994,0.041,-0.042,0.093,2491,0,185,2283,643,1115,38,821,0,0.000,1,0,1.146,0.113,-1.000,-0.460,-0.320,-0.069,-0.077,0.973,-0.016,-0.112,0.092,0.000,0.000,0.000,0.000,0,2,1,3,7,255,918,250,6,918
stim,906,906,1,336333.829,0.994,0.041,-0.042,0.093,2503,0,179,2283,225,1106,36,811,0,0.000,1,0,1.708,0.122,0.460,1.240,1.080,-0.071,-0.076,0.986,0.072,0.098,-0.108,0.000,0.000,0.000,0.000,0,2,1,3,7,255,918,250,11,918
stim,906,906,1,336338.829,0.994,0.041,-0.042,0.093,2485,0,184,2279,207,1115,38,821,0,0.000,1,0,0.893,0.122,0.580,-0.160,0.660,-0.080,-0.095,1.010,0.072,0.098,-0.108,0.000,0.000,0.000,0.000,0,2,1,3,7,255,918,250,16,918
stim,906,906,1,336343.829,0.994,0.041,-0.042,0.093,2478,0,181,2281,672,1113,38,814,0,0.000,1,0,0.613,0.041,-0.340,-0.340,-0.380,-0.081,-0.099,1.001,-0.028,-0.030,0.064,0.000,0.000,0.000,0.000,0,2,1,3,7,255,918,250,21,918
stim,925,925,1,336348.829,0.994,0.041,-0.042,0.093,2475,0,184,2277,895,1109,39,819,0,0.000,1,0,0.670,0.041,-0.580,-0.100,-0.320,-0.076,-0.091,0.994,-0.028,-0.030,0.064,0.000,0.000,0.000,0.000,0,2,1,3,7,255,918,250,26,918
stim,925,925,1,336353.829,0.994,0.041,-0.042,0.093,2471,0,181,2227,843,1117,42,820,0,0.000,1,0,0.467,0.015,-0.460,0.080,-0.020,-0.076,-0.089,0.991,0.006,-0.014,-0.022,0.000,0.000,0.000,0.000,0,2,1,3,7,255,918,250,31,918
stim,938,938,1,336358.829,0.994,0.041,-0.042,0.093,2478,0,182,2279,40,1113,38,819,0,0.000,1,0,0.170,0.007,0.040,-0.040,0.160,-0.075,-0.085,0.994,0.006,0.004,-0.022,0.000,0.000,0.000,0.000,0,2,1,3,7,255,918,250,36,918
stim,938,938,1,336363.829,0.994,0.041,-0.042,0.093,2501,0,183,2279,998,1111,38,823,0,0.000,1,0,0.279,0.017,0.100,0.140,0.220,-0.077,-0.088,0.995,0.006,0.016,-0.022,0.000,0.000,0.000,0.000,0,2,1,3,7,255,918,250,41,918
stim,938,938,1,336368.829,0.994,0.041,-0.042,0.093,2485,0,181,2270,949,1112,35,820,0,0.000,1,0,0.350,0.026,0.220,-0.160,0.220,-0.073,-0.091,0.998,0.020,0.016,-0.012,0.000,0.000,0.000,0.000,0,2,1,3,7,255,918,250,46,918
stim,938,938,1,336373.829,0.994,0.041,-0.042,0.093,2475,0,181,2269,555,1107,35,816,0,0.000,1,0,0.433,0.012,0.040,-0.160,0.400,-0.077,-0.093,0.996,0.002,-0.012,0.006,0.000,0.000,0.000,0.000,0,2,1,3,7,255,918,250,51,918
stim,970,970,1,336378.829,0.994,0.041,-0.042,0.093,2480,0,180,2272,1077,1111,39,815,0,0.000,1,0,0.357,0.026,-0.100,-0.040,0.340,-0.079,-0.093,0.998,-0.010,-0.024,0.014,0.000,0.000,0.000,0.000,0,2,1,3,7,255,918,250,56,918
stim,970,970,1,336383.829,0.994,0.041,-0.042,0.093,2472,0,181,2274,278,1117,35,818,0,0.000,1,0,0.177,0.035,-0.100,-0.040,-0.140,-0.082,-0.089,0.993,-0.026,-0.024,0.006,0.000,0.000,0.000,0.000,0,2,1,3,7,255,918,250,61,918
stim,970,970,1,336388.829,0.994,0.041,-0.042,0.093,2487,0,175,2275,947,1111,35,812,0,0.000,1,0,0.336,0.035,-0.100,0.020,-0.320,-0.077,-0.093,0.995,-0.026,-0.024,-0.004,0.000,0.000,0.000,0.000,0,2,1,3,7,255,918,250,66,918
stim,970,970,1,336393.829,0.994,0.041,-0.042,0.093,2489,0,179,2279,767,1116,39,823,0,0.000,1,0,0.110,0.011,-0.100,-0.040,-0.020,-0.074,-0.091,0.996,-0.004,-0.010,-0.004,0.000,0.000,0.000,0.000,0,2,1,3,7,255,918,250,71,918
stim,970,970,1,336398.829,0.994,0.041,-0.042,0.093,2487,0,183,2277,524,1112,39,821,0,0.000,1,0,0.357,0.014,-0.220,0.020,0.280,-0.076,-0.088,0.997,0.010,-0.010,0.002,0.000,0.000,0.000,0.000,0,2,1,3,7,255,918,250,76,918
stim,970,970,1,336403.829,0.994,0.041,-0.042,0.093,2475,0,179,2279,325,1111,38,815,0,0.000,1,0,0.338,0.019,-0.160,-0.100,0.280,-0.078,-0.089,0.997,0.010,0.016,0.010,0.000,0.000,0.000,0.000,0,2,1,3,7,255,918,250,81,918
stim,970,970,1,336408.829,0.994,0.041,-0.042,0.093,2483,0,183,2291,151,1113,41,819,0,0.000,1,0,0.069,0.024,0.040,-0.040,0.040,-0.076,-0.087,0.996,0.010,0.022,0.010,0.000,0.000,0.000,0.000,0,2,1,3,7,255,918,250,86,918
stim,993,993,1,336413.829,0.994,0.041,-0.042,0.093,2501,0,189,2270,161,1115,41,815,0,0.000,1,0,0.170,0.021,0.160,-0.040,0.040,-0.074,-0.089,0.995,0.014,0.016,-0.006,0.000,0.000,0.000,0.000,0,2,1,3,7,255,918,250,91,918
stim,993,993,1,336418.829,0.994,0.041,-0.042,0.093,2473,0,180,2279,1003,1112,35,813,0,0.000,1,0,0.110,0.038,0.100,0.020,0.040,-0.074,-0.086,0.997,0.030,0.024,-0.006,0.000,0.000,0.000,0.000,0,2,1,3,7,255,918,250,96,918
stim,993,993,1,336423.829,0.994,0.041,-0.042,0.093,2479,0,179,2269,924,1107,41,813,0,0.000,1,0,0.143,0.030,-0.100,-0.100,-0.020,-0.077,-0.091,0.996,0.030,0.002,0.004,0.000,0.000,0.000,0.000,0,2,1,3,7,255,918,250,101,918
stim,993,993,1,336428.829,0.994,0.041,-0.042,0.093,2501,0,179,2284,191,1109,39,819,0,0.000,1,0,0.294,0.016,-0.280,-0.040,-0.080,-0.080,-0.089,0.995,0.000,0.016,0.004,0.000,0.000,0.000,0.000,0,2,1,3,7,255,918,250,106,918
stim,993,993,1,336433.829,0.994,0.041,-0.042,0.093,2484,0,181,2277,179,1110,39,815,0,0.000,1,0,0.193,0.027,-0.160,-0.100,0.040,-0.079,-0.094,0.996,-0.026,-0.006,0.004,0.000,0.000,0.000,0.000,0,2,1,3,7,255,918,250,111,918
stim,1026,1026,1,336438.829,0.994,0.041,-0.042,0.093,2474,0,180,2269,199,1117,37,813,0,0.000,1,0,0.143,0.028,-0.020,-0.100,0.100,-0.078,-0.092,0.999,-0.026,-0.010,0.008,0.000,0.000,0.000,0.000,0,2,1,3,7,255,918,250,116,918
stim,1026,1026,1,336443.829,0.994,0.041,-0.042,0.093,2473,0,179,2267,104,1111,40,810,0,0.000,1,0,0.245,0.017,0.100,-0.040,0.220,-0.074,-0.087,0.999,-0.014,-0.010,0.022,0.000,0.000,0.000,0.000,0,2,1,3,7,255,918,250,121,918
stim,1026,1026,0,336448.829,0.994,0.041,-0.042,0.093,2484,0,183,2277,94,1109,41,813,0,0.000,1,0,0.166,0.043,0.040,0.020,0.160,-0.074,-0.085,0.997,0.032,0.028,0.022,0.000,0.000,0.000,0.000,0,2,0,3,7,255,918,250,126,918
stim,1026,1026,0,336453.829,0.994,0.041,-0.042,0.093,2480,0,176,2277,77,1115,36,813,0,0.000,1,0,0.092,0.043,-0.020,-0.040,-0.080,-0.077,-0.088,0.995,0.032,0.028,0.000,0.000,0.000,0.000,0.000,0,2,0,3,7,255,918,250,131,918
stim,1026,1026,0,336458.829,0.994,0.041,-0.042,0.093,2481,0,183,2291,93,1113,35,821,0,0.000,1,0,0.180,0.020,-0.160,0.020,-0.080,-0.077,-0.089,0.995,0.004,0.020,-0.012,0.000,0.000,0.000,0.000,0,2,0,3,7,255,918,250,136,918
stim,1034,1034,0,336463.829,0.994,0.041,-0.042,0.093,2462,0,179,2261,78,1107,39,817,0,0.000,1,0,0.237,0.007,-0.220,-0.040,-0.080,-0.078,-0.091,0.996,-0.004,0.006,-0.012,0.000,0.000,0.000,0.000,0,2,0,3,7,255,918,250,141,918
stim,1034,1034,0,336468.829,0.994,0.041,-0.042,0.093,2474,0,183,2271,119,1111,38,821,0,0.000,1,0,0.166,0.006,-0.160,-0.040,-0.020,-0.076,-0.090,0.998,-0.004,-0.004,0.004,0.000,0.000,0.000,0.000,0,2,0,3,7,255,918,250,146,918
stim,1066,1066,0,336473.829,0.994,0.041,-0.042,0.093,2464,0,185,2274,159,1108,37,815,0,0.000,1,0,0.130,0.011,-0.100,0.020,-0.080,-0.077,-0.092,0.996,-0.004,-0.010,0.004,0.000,0.000,0.000,0.000,0,2,0,3,7,255,918,250,151,918
stim,1066,1066,0,336478.829,0.994,0.041,-0.042,0.093,2476,0,181,2271,185,1108,39,818,0,0.000,1,0,0.227,0.016,-0.100,-0.040,-0.200,-0.077,-0.092,0.996,-0.004,-0.016,0.004,0.000,0.000,0.000,0.000,0,2,0,3,7,255,918,250,156,918
stim,1066,1066,0,336483.829,0.994,0.041,-0.042,0.093,2468,0,183,2266,438,1108,39,813,0,0.000,1,0,0.389,0.018,-0.220,0.020,-0.320,-0.078,-0.091,0.997,-0.008,-0.016,0.004,0.000,0.000,0.000,0.000,0,2,0,3,7,255,918,250,161,918
stim,1066,1066,0,336488.829,0.994,0.041,-0.042,0.093,2476,0,183,2281,213,1107,37,819,0,0.000,1,0,0.598,0.016,-0.460,-0.040,-0.380,-0.077,-0.092,0.997,-0.008,-0.014,0.008,0.000,0.000,0.000,0.000,0,2,0,3,7,255,918,250,166,918
stim,1066,1066,0,336493.829,0.994,0.041,-0.042,0.093,2483,0,181,2271,552,1103,35,811,0,0.000,1,0,0.559,0.010,-0.520,-0.040,-0.200,-0.072,-0.085,0.994,-0.006,-0.008,0.008,0.000,0.000,0.000,0.000,0,2,0,3,7,255,918,250,171,918
stim,1066,1066,0,336498.829,0.994,0.041,-0.042,0.093,2485,0,183,2277,346,1111,38,819,0,0.000,1,0,0.525,0.060,-0.340,0.020,0.400,-0.069,-0.081,0.991,0.050,0.034,-0.024,0.000,0.000,0.000,0.000,0,2,0,3,7,255,918,250,176,918
stim,1082,1082,0,336503.829,0.994,0.041,-0.042,0.093,2483,0,180,2262,245,1109,40,815,0,0.000,1,0,0.764,0.060,0.160,0.200,0.720,-0.077,-0.086,0.990,0.050,0.034,-0.058,0.000,0.000,0.000,0.000,0,2,0,3,7,255,918,250,181,918
stim,1082,1082,0,336508.830,0.994,0.041,-0.042,0.093,2479,0,184,2271,251,1111,39,819,0,0.000,1,0,0.435,0.034,0.400,0.140,0.100,-0.083,-0.095,0.999,0.000,0.034,-0.058,0.000,0.000,0.000,0.000,0,2,0,3,7,255,918,250,186,918
stim,1082,1082,0,336513.829,0.994,0.041,-0.042,0.093,2472,0,180,2267,217,1102,36,813,0,0.000,1,0,0.735,0.036,0.220,-0.040,-0.700,-0.078,-0.096,1.005,-0.016,-0.032,0.040,0.000,0.000,0.000,0.000,0,2,0,3,7,255,918,250,191,918
stim,1082,1082,0,336518.829,0.994,0.041,-0.042,0.093,2485,0,189,2272,199,1111,39,820,0,0.000,1,0,0.634,0.036,-0.580,-0.160,-0.200,-0.072,-0.090,0.999,-0.016,-0.032,0.040,0.000,0.000,0.000,0.000,0,2,0,3,7,255,918,250,196,918
stim,1103,1103,0,336523.829,0.994,0.041,-0.042,0.093,2478,0,183,2279,171,1109,42,819,0,0.000,1,0,1.172,0.016,-1.000,0.320,0.520,-0.081,-0.091,0.986,-0.016,-0.004,0.022,0.000,0.000,0.000,0.000,0,2,0,3,7,255,918,250,201,918
stim,1103,1103,0,336528.829,0.994,0.041,-0.042,0.093,2491,0,183,2279,213,1108,38,814,0,0.000,1,0,0.841,0.052,-0.160,-0.100,-0.820,-0.083,-0.093,0.998,-0.052,-0.004,0.022,0.000,0.000,0.000,0.000,0,2,0,3,7,255,918,250,206,918
stim,1103,1103,0,336533.829,0.994,0.041,-0.042,0.093,2493,0,185,2278,238,1108,40,829,0,0.000,1,0,1.062,0.052,0.880,-0.400,-0.440,-0.067,-0.079,1.001,-0.052,-0.004,0.028,0.000,0.000,0.000,0.000,0,2,0,3,7,255,918,250,211,918
stim,1103,1103,0,336538.829,0.994,0.041,-0.042,0.093,2478,0,185,2271,176,1109,37,813,0,0.000,1,0,1.755,0.013,-0.580,1.000,1.320,-0.076,-0.091,0.986,-0.006,-0.012,0.028,0.000,0.000,0.000,0.000,0,2,0,3,7,255,918,250,216,918
stim,1114,1114,0,336543.829,0.994,0.041,-0.042,0.093,2499,0,181,2283,183,1109,40,819,0,0.000,1,0,1.609,0.017,-1.260,-0.040,-1.000,-0.082,-0.097,1.002,-0.006,-0.016,0.038,0.000,0.000,0.000,0.000,0,2,0,3,7,255,918,250,221,918
stim,1114,1114,0,336548.829,0.994,0.041,-0.042,0.093,2473,0,187,2267,197,1112,39,804,0,0.000,1,0,1.540,0.017,1.200,-0.960,0.100,-0.073,-0.079,1.000,-0.006,-0.016,0.032,0.000,0.000,0.000,0.000,0,2,0,3,7,255,918,250,226,918
stim,1130,1130,0,336553.829,0.994,0.041,-0.042,0.093,2479,0,184,2283,179,1109,40,815,0,0.000,1,0,1.407,0.071,-0.460,1.300,0.280,-0.086,-0.107,0.988,-0.052,-0.048,0.032,0.000,0.000,0.000,0.000,0,2,0,3,7,255,918,250,231,918
stim,1130,1130,0,336558.829,0.994,0.041,-0.042,0.093,2483,0,188,2275,170,1111,40,815,0,0.000,1,0,1.844,0.116,-1.120,-0.780,-1.240,-0.062,-0.070,1.007,0.056,0.102,0.032,0.000,0.000,0.000,0.000,0,2,0,3,7,255,918,250,236,918
stim,1130,1130,0,336563.829,0.994,0.041,-0.042,0.093,2491,0,186,2283,216,1108,43,821,0,0.000,1,0,3.105,0.130,1.380,0.080,2.780,-0.088,-0.095,0.979,-0.124,-0.038,-0.056,0.000,0.000,0.000,0.000,0,2,0,3,7,255,918,250,241,918
stim,1130,1130,0,336568.829,0.994,0.041,-0.042,0.093,2484,0,186,2275,169,1115,41,816,0,0.000,1,0,4.288,0.064,-1.680,1.060,-3.800,-0.081,-0.108,1.012,-0.052,-0.038,0.084,0.000,0.000,0.000,0.000,0,2,0,3,7,255,918,250,246,918
stim,1162,1162,0,336573.829,0.994,0.041,-0.042,0.093,2484,0,187,2272,201,1107,39,815,0,0.000,1,0,4.114,0.064,1.060,-2.060,3.400,-0.058,-0.053,0.995,-0.052,-0.038,-0.058,0.000,0.000,0.000,0.000,0,2,0,3,7,255,918,250,251,918
stim,1162,1162,0,336578.829,0.994,0.041,-0.042,0.093,2475,0,187,2289,185,1115,38,821,0,0.000,1,0,3.361,0.159,-1.060,2.400,-2.100,-0.102,-0.131,0.976,-0.052,-0.150,-0.058,0.000,0.000,0.000,0.000,0,2,0,3,7,255,918,250,256,918
stim,1162,1162,0,336583.829,0.994,0.041,-0.042,0.093,2486,0,189,2276,187,1115,41,815,0,0.000,1,0,2.165,0.402,0.700,-1.940,0.660,-0.053,-0.053,1.028,0.246,0.318,-0.058,0.000,0.000,0.000,0.000,0,2,0,3,7,255,918,250,261,918
stim,1162,1162,0,336588.829,0.994,0.041,-0.042,0.093,2478,0,185,2272,207,1111,37,820,0,0.000,1,0,1.094,0.340,-0.640,0.820,0.340,-0.093,-0.117,0.964,-0.232,-0.248,-0.138,0.000,0.000,0.000,0.000,0,2,0,3,7,255,918,250,266,918
stim,1162,1162,0,336593.829,0.994,0.041,-0.042,0.093,2485,0,188,2275,181,1111,41,815,0,0.000,1,0,0.838,0.218,0.460,0.020,-0.700,-0.069,-0.072,1.021,0.126,0.178,0.220,0.000,0.000,0.000,0.000,0,2,0,3,7,255,918,250,271,918
stim,1162,1162,0,336598.829,0.994,0.041,-0.042,0.093,2479,0,188,2277,199,1112,39,821,0,0.000,1,0,0.889,0.096,-0.400,-0.600,0.520,-0.077,-0.099,0.982,-0.026,-0.092,-0.122,0.000,0.000,0.000,0.000,0,2,0,3,7,255,918,250,276,918
stim,1194,1194,0,336603.829,0.994,0.041,-0.042,0.093,2493,0,187,2280,175,1107,37,816,0,0.000,1,0,0.738,0.038,0.460,0.560,-0.140,-0.081,-0.089,1.002,-0.026,0.028,0.062,0.000,0.000,0.000,0.000,0,2,0,3,7,255,918,250,281,918
stim,1194,1194,0,336608.829,0.994,0.041,-0.042,0.093,2475,0,185,2280,213,1121,36,822,0,0.000,1,0,0.572,0.038,-0.340,-0.460,-0.020,-0.070,-0.086,0.994,-0.026,0.028,-0.024,0.000,0.000,0.000,0.000,0,2,0,3,7,255,918,250,286,918
stim,1194,1194,0,336613.829,0.994,0.041,-0.042,0.093,2485,0,189,2275,155,1113,38,822,0,0.000,1,0,0.467,0.043,0.220,0.380,0.160,-0.082,-0.097,0.995,-0.032,0.028,0.000,0.000,0.000,0.000,0.000,0,2,0,3,7,255,918,250,291,918
stim,1194,1194,0,336618.829,0.994,0.041,-0.042,0.093,2483,0,185,2279,225,1108,40,820,0,0.000,1,0,0.420,0.068,-0.100,-0.400,-0.080,-0.072,-0.082,0.998,0.060,0.032,0.000,0.000,0.000,0.000,0.000,0,2,0,3,7,255,918,250,296,918
stim,1194,1194,0,336623.829,0.994,0.041,-0.042,0.093,2476,0,182,2281,179,1111,41,817,0,0.000,1,0,0.262,0.031,-0.020,0.260,-0.020,-0.080,-0.089,0.993,-0.028,0.014,0.000,0.000,0.000,0.000,0.000,0,2,0,3,7,255,918,250,301,918
stim,1194,1194,0,336628.829,0.994,0.041,-0.042,0.093,2491,0,186,2275,205,1108,43,819,0,0.000,1,0,0.262,0.017,-0.100,-0.220,0.100,-0.076,-0.100,0.996,-0.010,0.014,0.008,0.000,0.000,0.000,0.000,0,2,0,3,7,255,918,250,306,918
stim,1210,1210,0,336633.829,0.994,0.041,-0.042,0.093,2491,0,187,2277,195,1113,40,815,0,0.000,1,0,0.544,0.017,0.460,0.080,0.280,-0.076,-0.069,0.998,-0.010,0.014,0.004,0.000,0.000,0.000,0.000,0,2,0,3,7,255,918,250,311,918
stim,1210,1210,0,336638.829,0.994,0.041,-0.042,0.093,2475,0,185,2261,173,1111,40,823,0,0.000,1,0,1.425,0.091,-1.120,-0.040,-0.880,-0.077,-0.112,0.993,-0.010,-0.090,0.004,0.000,0.000,0.000,0.000,0,2,0,3,7,255,918,250,316,918
stim,1226,1226,0,336643.829,0.994,0.041,-0.042,0.093,2491,0,188,2280,197,1115,41,820,0,0.000,1,0,1.747,0.096,1.260,-0.160,1.200,-0.074,-0.081,0.998,0.042,0.086,0.004,0.000,0.000,0.000,0.000,0,2,0,3,7,255,918,250,321,918
stim,1226,1226,0,336648.829,0.994,0.041,-0.042,0.093,2479,0,187,2280,186,1111,37,821,0,0.000,1,0,0.990,0.087,-0.700,0.020,-0.700,-0.081,-0.075,0.999,-0.012,0.086,0.008,0.000,0.000,0.000,0.000,0,2,0,3,7,255,918,250,326,918
stim,1226,1226,0,336653.829,0.994,0.041,-0.042,0.093,2492,0,191,2283,189,1111,37,827,0,0.000,1,0,0.553,0.086,-0.400,-0.040,-0.380,-0.071,-0.118,0.991,0.000,0.086,0.008,0.000,0.000,0.000,0.000,0,2,0,3,7,255,918,250,331,918
stim,1226,1226,0,336658.829,0.994,0.041,-0.042,0.093,2479,0,186,2281,176,1109,37,823,0,0.000,1,0,1.491,0.156,0.880,-0.100,1.200,-0.078,-0.069,0.996,0.000,0.156,-0.018,0.000,0.000,0.000,0.000,0,2,0,3,7,255,918,250,336,918
stim,1242,1242,0,336663.829,0.994,0.041,-0.042,0.093,2484,0,186,2277,185,1109,37,825,0,0.000,1,0,1.162,0.072,-0.820,0.080,-0.820,-0.081,-0.084,1.002,0.000,0.072,-0.018,0.000,0.000,0.000,0.000,0,2,0,3,7,255,918,250,341,918
stim,1242,1242,0,336668.829,0.994,0.041,-0.042,0.093,2476,0,189,2255,211,1117,41,825,0,0.000,1,0,0.395,0.072,-0.340,0.020,-0.200,-0.073,-0.111,0.991,-0.002,0.072,-0.018,0.000,0.000,0.000,0.000,0,2,0,3,7,255,918,250,346,918
stim,1274,1274,0,336673.829,0.994,0.041,-0.042,0.093,2479,0,182,2283,192,1110,36,820,0,0.000,1,0,0.802,0.072,0.340,-0.100,0.720,-0.076,-0.074,0.995,-0.002,0.072,-0.024,0.000,0.000,0.000,0.000,0,2,0,3,7,255,918,250,351,918
stim,1274,1274,0,336678.829,0.994,0.041,-0.042,0.093,2479,0,189,2291,189,1115,36,823,0,0.000,1,0,0.420,0.070,-0.160,0.080,-0.380,-0.080,-0.084,1.003,-0.002,0.070,-0.024,0.000,0.000,0.000,0.000,0,2,0,3,7,255,918,250,356,918
stim,1274,1274,0,336683.829,0.994,0.041,-0.042,0.093,2493,0,185,2271,205,1112,38,825,0,0.000,1,0,0.637,0.071,-0.580,-0.040,-0.260,-0.076,-0.102,0.995,-0.014,0.070,-0.002,0.000,0.000,0.000,0.000,0,2,0,3,7,255,918,250,361,918
stim,1274,1274,0,336688.829,0.994,0.041,-0.042,0.093,2471,0,185,2268,204,1113,39,815,0,0.000,1,0,0.467,0.042,-0.220,-0.100,0.400,-0.075,-0.086,0.990,-0.014,0.040,-0.002,0.000,0.000,0.000,0.000,0,2,0,3,7,255,918,250,366,918
stim,1274,1274,0,336693.829,0.994,0.041,-0.042,0.093,2491,0,183,2283,190,1111,36,819,0,0.000,1,0,0.350,0.041,0.340,0.020,-0.080,-0.079,-0.084,0.998,-0.010,0.040,-0.002,0.000,0.000,0.000,0.000,0,2,0,3,7,255,918,250,371,918
stim,1274,1274,0,336698.829,0.994,0.041,-0.042,0.093,2480,0,185,2283,186,1112,39,819,0,0.000,1,0,0.553,0.040,-0.400,-0.040,-0.380,-0.077,-0.093,1.001,0.002,0.040,0.014,0.000,0.000,0.000,0.000,0,2,0,3,7,255,918,250,376,918
stim,1274,1274,0,336703.829,0.994,0.041,-0.042,0.093,2479,0,187,2272,200,1115,38,823,0,0.000,1,0,0.707,0.020,-0.700,0.020,0.100,-0.075,-0.092,0.991,0.002,-0.020,0.014,0.000,0.000,0.000,0.000,0,2,0,3,7,255,918,250,381,918
stim,1292,1292,0,336708.830,0.994,0.041,-0.042,0.093,2485,0,187,2276,201,1112,42,816,0,0.000,1,0,0.357,0.020,0.220,0.020,0.280,-0.079,-0.084,0.994,0.002,-0.020,-0.020,0.000,0.000,0.000,0.000,0,2,0,3,7,255,918,250,386,918
stim,1292,1292,0,336713.829,0.994,0.041,-0.042,0.093,2475,0,191,2269,201,1115,45,822,0,0.000,1,0,0.275,0.041,-0.040,0.080,-0.260,-0.080,-0.087,1.000,-0.008,0.040,-0.020,0.000,0.000,0.000,0.000,0,2,0,3,7,255,918,250,391,918
stim,1292,1292,0,336718.829,0.994,0.041,-0.042,0.093,2489,0,186,2279,187,1115,37,820,0,0.000,1,0,0.860,0.041,-0.700,0.020,-0.500,-0.073,-0.093,0.996,-0.008,0.040,0.004,0.000,0.000,0.000,0.000,0,2,0,3,7,255,918,250,396,918
stim,1292,1292,0,336723.829,0.994,0.041,-0.042,0.093,2485,0,188,2277,187,1109,37,816,0,0.000,1,0,0.534,0.043,-0.400,-0.100,0.340,-0.073,-0.094,0.991,0.028,-0.032,0.004,0.000,0.000,0.000,0.000,0,2,0,3,7,255,918,250,401,918
stim,1306,1306,0,336728.829,0.994,0.041,-0.042,0.093,2488,0,184,2289,211,1111,39,824,0,0.000,1,0,0.602,0.043,0.160,0.020,0.580,-0.080,-0.087,0.996,0.028,-0.032,0.004,0.000,0.000,0.000,0.000,0,2,0,3,7,255,918,250,406,918
stim,1306,1306,0,336733.829,0.994,0.041,-0.042,0.093,2478,0,183,2277,205,1114,38,825,0,0.000,1,0,0.279,0.046,-0.100,0.020,-0.260,-0.082,-0.085,1.000,-0.026,0.038,0.004,0.000,0.000,0.000,0.000,0,2,0,3,7,255,918,250,411,918
stim,1306,1306,0,336738.829,0.994,0.041,-0.042,0.093,2479,0,184,2279,198,1111,38,824,0,0.000,1,0,0.922,0.046,-0.520,-0.040,-0.760,-0.074,-0.089,0.996,-0.026,0.038,0.004,0.000,0.000,0.000,0.000,0,2,0,3,7,255,918,250,416,918
stim,1306,1306,0,336743.829,0.994,0.041,-0.042,0.093,2474,0,187,2269,191,1115,40,809,0,0.000,1,0,0.378,0.027,-0.340,-0.040,0.160,-0.070,-0.096,0.993,0.026,0.006,0.000,0.000,0.000,0.000,0.000,0,2,0,3,7,255,918,250,421,918
stim,1325,1325,0,336748.829,0.994,0.041,-0.042,0.093,2489,0,184,2283,200,1115,40,820,0,0.000,1,0,0.781,0.037,-0.020,0.020,0.780,-0.079,-0.094,0.993,0.026,-0.026,-0.024,0.000,0.000,0.000,0.000,0,2,0,3,7,255,918,250,426,918
stim,1325,1325,0,336753.829,0.994,0.041,-0.042,0.093,2485,0,186,2284,189,1113,43,819,0,0.000,1,0,0.170,0.041,0.040,-0.040,0.160,-0.083,-0.087,0.996,-0.032,-0.026,-0.024,0.000,0.000,0.000,0.000,0,2,0,3,7,255,918,250,431,918
stim,1325,1325,0,336758.829,0.994,0.041,-0.042,0.093,2491,0,189,2271,187,1115,40,825,0,0.000,1,0,0.648,0.053,-0.100,0.020,-0.640,-0.077,-0.086,0.998,-0.032,0.042,0.006,0.000,0.000,0.000,0.000,0,2,0,3,7,255,918,250,436,918
stim,1325,1325,0,336763.829,0.994,0.041,-0.042,0.093,2477,0,189,2271,187,1111,43,821,0,0.000,1,0,0.358,0.043,-0.160,0.020,-0.320,-0.072,-0.091,0.998,0.010,0.042,0.016,0.000,0.000,0.000,0.000,0,2,0,3,7,255,918,250,441,918
stim,1370,1370,0,336768.829,0.994,0.041,-0.042,0.093,2477,0,184,2283,184,1113,39,825,0,0.000,1,0,0.405,0.031,-0.220,0.020,0.340,-0.074,-0.091,0.997,0.030,-0.006,0.016,0.000,0.000,0.000,0.000,0,2,0,3,7,255,918,250,446,918
stim,1370,1370,0,336773.829,0.994,0.041,-0.042,0.093,2474,0,189,2287,183,1114,39,829,0,0.000,1,0,0.405,0.031,-0.220,0.020,0.340,-0.079,-0.089,0.995,0.030,-0.006,0.012,0.000,0.000,0.000,0.000,0,2,0,3,7,255,918,250,451,918
stim,1392,1392,0,336778.829,0.994,0.041,-0.042,0.093,2478,0,183,2276,188,1113,35,825,0,0.000,1,0,0.183,0.022,-0.160,-0.040,-0.080,-0.080,-0.091,0.995,-0.022,0.004,-0.004,0.000,0.000,0.000,0.000,0,2,0,3,7,255,918,250,456,918
stim,1392,1392,0,336783.829,0.994,0.041,-0.042,0.093,2479,0,189,2272,180,1115,39,823,0,0.000,1,0,0.202,0.022,-0.020,0.020,-0.200,-0.075,-0.092,0.995,-0.022,0.004,-0.006,0.000,0.000,0.000,0.000,0,2,0,3,7,255,918,250,461,918
stim,1392,1392,0,336788.829,0.994,0.041,-0.042,0.093,2479,0,188,2276,183,1113,39,816,0,0.000,1,0,0.035,0.016,-0.020,0.020,-0.020,-0.075,-0.089,0.996,0.016,0.004,-0.006,0.000,0.000,0.000,0.000,0,2,0,3,7,255,918,250,466,918
stim,1392,1392,0,336793.829,0.994,0.041,-0.042,0.093,2479,0,183,2284,187,1113,36,821,0,0.000,1,0,0.190,0.018,-0.100,0.020,0.160,-0.077,-0.088,0.996,0.016,0.008,-0.002,0.000,0.000,0.000,0.000,0,2,0,3,7,255,918,250,471,918
stim,1392,1392,0,336798.829,0.994,0.041,-0.042,0.093,2485,0,184,2286,187,1107,41,819,0,0.000,1,0,0.190,0.020,-0.160,0.020,0.100,-0.076,-0.088,0.994,0.008,0.018,-0.002,0.000,0.000,0.000,0.000,0,2,0,3,7,255,918,250,476,918
stim,1392,1392,0,336803.829,0.994,0.041,-0.042,0.093,2480,0,186,2278,187,1111,39,824,0,0.000,1,0,0.166,0.018,-0.160,0.020,0.040,-0.077,-0.090,0.994,0.004,0.018,-0.014,0.000,0.000,0.000,0.000,0,2,0,3,7,255,918,250,481,918
stim,1392,1392,0,336808.829,0.994,0.041,-0.042,0.093,2493,0,184,2291,181,1113,33,821,0,0.000,1,0,0.104,0.002,-0.020,0.020,0.100,-0.077,-0.090,0.996,0.000,0.002,-0.014,0.000,0.000,0.000,0.000,0,2,0,3,7,255,918,250,486,918
stim,1392,1392,0,336813.829,0.994,0.041,-0.042,0.093,2483,0,181,2273,180,1113,39,819,0,0.000,1,0,0.049,0.002,-0.020,0.020,0.040,-0.078,-0.090,0.996,0.000,0.002,0.000,0.000,0.000,0.000,0.000,0,2,0,3,7,255,918,250,491,918
stim,1393,1393,0,336818.829,0.994,0.041,-0.042,0.093,2487,0,188,2280,178,1111,41,820,0,0.000,1,0,0.035,0.011,-0.020,0.020,-0.020,-0.078,-0.089,0.995,-0.008,0.008,0.000,0.000,0.000,0.000,0.000,0,2,0,3,7,255,918,250,496,918
stim,1393,1393,0,336823.829,0.994,0.041,-0.042,0.093,2487,0,188,2281,177,1111,41,820,0,0.000,1,0,0.110,0.011,-0.100,0.020,0.040,-0.076,-0.090,0.995,-0.008,0.008,-0.006,0.000,0.000,0.000,0.000,0,2,0,3,7,255,918,250,501,918
stim,1402,1402,0,336828.829,0.994,0.041,-0.042,0.093,2475,0,183,2269,173,1105,37,813,0,0.000,1,0,0.170,0.006,0.040,-0.040,0.160,-0.077,-0.090,0.995,0.000,0.006,-0.006,0.000,0.000,0.000,0.000,0,2,0,3,7,255,918,250,506,918
stim,1402,1402,0,336833.829,0.994,0.041,-0.042,0.093,2473,0,186,2231,179,1113,41,819,0,0.000,1,0,0.147,0.006,0.100,-0.040,0.100,-0.077,-0.090,0.997,0.000,0.006,-0.006,0.000,0.000,0.000,0.000,0,2,0,3,7,255,918,250,511,918
stim,1424,1424,0,336838.829,0.994,0.041,-0.042,0.093,2479,0,187,2277,181,1108,40,823,0,0.000,1,0,0.115,0.003,0.040,-0.040,0.100,-0.077,-0.090,0.995,-0.002,0.002,-0.004,0.000,0.000,0.000,0.000,0,2,0,3,7,255,918,250,516,918
stim,1424,1424,0,336843.829,0.994,0.041,-0.042,0.093,2489,0,188,2279,171,1108,41,815,0,0.000,1,0,0.143,0.008,0.100,0.020,0.100,-0.076,-0.088,0.996,-0.002,0.008,0.002,0.000,0.000,0.000,0.000,0,2,0,3,7,255,918,250,521,918
stim,1424,1424,0,336848.829,0.994,0.041,-0.042,0.093,2506,0,185,2278,170,1103,36,825,0,0.000,1,0,0.147,0.002,0.100,-0.040,0.100,-0.077,-0.090,0.996,0.000,0.002,0.002,0.000,0.000,0.000,0.000,0,2,0,3,7,255,918,250,526,918
stim,1424,1424,0,336853.829,0.994,0.041,-0.042,0.093,2477,0,183,2275,168,1111,39,817,0,0.000,1,0,0.115,0.004,-0.040,-0.040,0.100,-0.078,-0.090,0.996,0.000,0.004,0.004,0.000,0.000,0.000,0.000,0,2,0,3,7,255,918,250,531,918
stim,1424,1424,0,336858.829,0.994,0.041,-0.042,0.093,2477,0,185,2279,163,1111,35,823,0,0.000,1,0,0.115,0.004,0.040,-0.040,0.100,-0.076,-0.089,0.996,0.000,0.004,0.004,0.000,0.000,0.000,0.000,0,2,0,3,7,255,918,250,536,918
stim,1434,1434,0,336863.829,0.994,0.041,-0.042,0.093,2487,0,191,2281,161,1103,38,827,0,0.000,1,0,0.115,0.006,0.040,-0.100,0.040,-0.076,-0.090,0.995,0.004,0.004,0.002,0.000,0.000,0.000,0.000,0,2,0,3,7,255,918,250,541,918
stim,1434,1434,0,336868.829,0.994,0.041,-0.042,0.093,2487,0,188,2285,160,1111,39,823,0,0.000,1,0,0.069,0.011,0.040,-0.040,0.040,-0.077,-0.089,0.997,0.004,0.010,0.002,0.000,0.000,0.000,0.000,0,2,0,3,7,255,918,250,546,918
stim,1466,1466,0,336873.829,0.994,0.041,-0.042,0.093,2472,0,184,2267,157,1109,37,815,0,0.000,1,0,0.110,0.013,-0.040,0.020,0.100,-0.076,-0.089,0.996,0.004,0.012,0.002,0.000,0.000,0.000,0.000,0,2,0,3,7,255,918,250,551,918
stim,1466,1466,0,336878.829,0.994,0.041,-0.042,0.093,2475,0,189,2287,161,1117,39,827,0,0.000,1,0,0.060,0.015,-0.040,0.020,0.040,-0.077,-0.088,0.997,0.004,0.014,0.006,0.000,0.000,0.000,0.000,0,2,0,3,7,255,918,250,556,918
stim,1466,1466,0,336883.829,0.994,0.041,-0.042,0.093,2481,0,185,2269,159,1104,35,817,0,0.000,1,0,0.069,0.020,-0.040,-0.040,0.040,-0.077,-0.088,0.996,0.004,0.020,0.002,0.000,0.000,0.000,0.000,0,2,0,3,7,255,918,250,561,918
stim,1466,1466,0,336888.829,0.994,0.041,-0.042,0.093,2485,0,184,2291,157,1108,42,821,0,0.000,1,0,0.110,0.020,-0.100,-0.040,-0.020,-0.076,-0.089,0.996,0.004,0.020,0.002,0.000,0.000,0.000,0.000,0,2,0,3,7,255,918,250,566,918
stim,1466,1466,0,336893.829,0.994,0.041,-0.042,0.093,2487,0,183,2277,158,1104,41,819,0,0.000,1,0,0.110,0.011,-0.100,-0.040,-0.020,-0.077,-0.089,0.997,0.004,0.010,0.002,0.000,0.000,0.000,0.000,0,2,0,3,7,255,918,250,571,918
stim,1466,1466,0,336898.829,0.994,0.041,-0.042,0.093,2477,0,191,2279,161,1109,41,816,0,0.000,1,0,0.166,0.011,-0.160,-0.040,-0.020,-0.077,-0.089,0.997,0.004,0.010,0.008,0.000,0.000,0.000,0.000,0,2,0,3,7,255,918,250,576,918
stim,1482,1482,0,336903.829,0.994,0.041,-0.042,0.093,2499,0,189,2278,149,1108,37,823,0,0.000,1,0,0.110,0.011,-0.100,-0.040,-0.020,-0.076,-0.089,0.996,0.004,0.010,0.008,0.000,0.000,0.000,0.000,0,2,0,3,7,255,918,250,581,918
stim,1482,1482,0,336908.830,0.994,0.041,-0.042,0.093,2473,0,186,2267,157,1117,40,814,0,0.000,1,0,0.166,0.011,-0.160,0.020,0.040,-0.077,-0.089,0.996,0.004,0.010,0.002,0.000,0.000,0.000,0.000,0,2,0,3,7,255,918,250,586,918
stim,1482,1482,0,336913.829,0.994,0.041,-0.042,0.093,2493,0,186,2278,161,1109,41,816,0,0.000,1,0,0.183,0.008,-0.160,-0.040,-0.080,-0.077,-0.090,0.996,0.002,0.008,0.002,0.000,0.000,0.000,0.000,0,2,0,3,7,255,918,250,591,918
stim,1482,1482,0,336918.829,0.994,0.041,-0.042,0.093,2479,0,184,2272,155,1111,37,823,0,0.000,1,0,0.166,0.010,-0.160,-0.040,-0.020,-0.076,-0.089,0.997,0.002,0.010,0.002,0.000,0.000,0.000,0.000,0,2,0,3,7,255,918,250,596,918
stim,1498,1498,0,336923.829,0.994,0.041,-0.042,0.093,2495,0,187,2278,147,1111,39,816,0,0.000,1,0,0.166,0.014,-0.160,-0.040,-0.020,-0.078,-0.088,0.997,0.000,0.014,0.006,0.000,0.000,0.000,0.000,0,2,0,3,7,255,918,250,601,918
stim,1498,1498,0,336928.829,0.994,0.041,-0.042,0.093,2485,0,184,2277,149,1108,38,823,0,0.000,1,0,0.224,0.014,-0.220,-0.040,-0.020,-0.077,-0.089,0.996,0.002,0.014,0.006,0.000,0.000,0.000,0.000,0,2,0,3,7,255,918,250,606,918
stim,1498,1498,0,336933.829,0.994,0.041,-0.042,0.093,2475,0,185,2269,147,1107,37,815,0,0.000,1,0,0.222,0.008,-0.220,0.020,-0.020,-0.076,-0.090,0.996,0.002,0.008,-0.002,0.000,0.000,0.000,0.000,0,2,0,3,7,255,918,250,611,918
stim,1498,1498,0,336938.829,0.994,0.041,-0.042,0.093,2477,0,188,2267,149,1115,37,826,0,0.000,1,0,0.224,0.007,-0.220,-0.040,-0.020,-0.076,-0.090,0.996,0.006,0.004,-0.002,0.000,0.000,0.000,0.000,0,2,0,3,7,255,918,250,616,918
stim,1514,1514,0,336943.829,0.994,0.041,-0.042,0.093,2479,0,188,2270,146,1115,36,816,0,0.000,1,0,0.222,0.006,-0.220,0.020,-0.020,-0.077,-0.091,0.995,0.006,0.002,-0.002,0.000,0.000,0.000,0.000,0,2,0,3,7,255,918,250,621,918
stim,1514,1514,0,336948.829,0.994,0.041,-0.042,0.093,2478,0,184,2277,155,1110,37,819,0,0.000,1,0,0.281,0.004,-0.280,0.020,-0.020,-0.077,-0.089,0.997,-0.002,0.004,0.002,0.000,0.000,0.000,0.000,0,2,0,3,7,255,918,250,626,918
stim,1530,1530,0,336953.829,0.994,0.041,-0.042,0.093,2507,0,187,2281,153,1113,40,823,0,0.000,1,0,0.292,0.004,-0.280,0.020,-0.080,-0.077,-0.090,0.996,-0.002,0.004,0.004,0.000,0.000,0.000,0.000,0,2,0,3,7,255,918,250,631,918
stim,1530,1530,0,336958.829,0.994,0.041,-0.042,0.093,2485,0,191,2272,151,1108,39,827,0,0.000,1,0,0.222,0.012,-0.220,0.020,-0.020,-0.076,-0.089,0.997,0.002,0.012,0.006,0.000,0.000,0.000,0.000,0,2,0,3,7,255,918,250,636,918
stim,1530,1530,0,336963.829,0.994,0.041,-0.042,0.093,2479,0,186,2277,152,1112,37,823,0,0.000,1,0,0.294,0.009,-0.280,-0.040,-0.080,-0.076,-0.090,0.995,0.008,0.004,0.004,0.000,0.000,0.000,0.000,0,2,0,3,7,255,918,250,641,918
stim,1530,1530,0,336968.829,0.994,0.041,-0.042,0.093,2475,0,186,2231,153,1125,39,823,0,0.000,1,0,0.281,0.011,-0.280,0.020,-0.020,-0.077,-0.089,0.995,0.008,0.008,-0.006,0.000,0.000,0.000,0.000,0,2,0,3,7,255,918,250,646,918
stim,1578,1578,0,336973.829,0.994,0.041,-0.042,0.093,2479,0,184,2281,152,1110,38,823,0,0.000,1,0,0.235,0.008,-0.220,0.020,-0.080,-0.076,-0.089,0.995,0.006,0.006,-0.006,0.000,0.000,0.000,0.000,0,2,0,3,7,255,918,250,651,918
stim,1578,1578,0,336978.829,0.994,0.041,-0.042,0.093,2479,0,184,2282,153,1112,40,821,0,0.000,1,0,0.292,0.006,-0.280,0.020,-0.080,-0.077,-0.090,0.997,0.000,0.006,-0.006,0.000,0.000,0.000,0.000,0,2,0,3,7,255,918,250,656,918
stim,1578,1578,0,336983.829,0.994,0.041,-0.042,0.093,2505,0,190,2279,150,1109,37,825,0,0.000,1,0,0.235,0.006,-0.220,0.020,-0.080,-0.075,-0.090,0.995,0.006,0.000,-0.006,0.000,0.000,0.000,0.000,0,2,0,3,7,255,918,250,661,918
stim,1578,1578,0,336988.829,0.994,0.041,-0.042,0.093,2485,0,185,2291,153,1108,38,819,0,0.000,1,0,0.292,0.006,-0.280,0.020,-0.080,-0.076,-0.089,0.997,0.006,0.000,0.008,0.000,0.000,0.000,0.000,0,2,0,3,7,255,918,250,666,918
stim,1578,1578,0,336993.829,0.994,0.041,-0.042,0.093,2493,0,185,2283,155,1114,41,819,0,0.000,1,0,0.222,0.006,-0.220,0.020,-0.020,-0.076,-0.090,0.996,0.006,0.002,-0.002,0.000,0.000,0.000,0.000,0,2,0,3,7,255,918,250,671,918
stim,1578,1578,0,336998.829,0.994,0.041,-0.042,0.093,2484,0,190,2272,153,1108,43,816,0,0.000,1,0,0.162,0.009,-0.160,0.020,-0.020,-0.077,-0.089,0.995,0.004,0.008,-0.002,0.000,0.000,0.000,0.000,0,2,0,3,7,255,918,250,676,918
stim,1594,1594,0,337003.829,0.994,0.041,-0.042,0.093,2487,0,189,2277,148,1108,37,816,0,0.000,1,0,0.224,0.002,-0.220,-0.040,-0.020,-0.077,-0.091,0.996,0.000,0.002,-0.002,0.000,0.000,0.000,0.000,0,2,0,3,7,255,918,250,681,918
stim,1594,1594,0,337008.829,0.994,0.041,-0.042,0.093,2484,0,188,2275,149,1115,39,816,0,0.000,1,0,0.130,0.002,-0.100,0.020,-0.080,-0.077,-0.090,0.996,0.000,-0.002,-0.002,0.000,0.000,0.000,0.000,0,2,0,3,7,255,918,250,686,918
stim,1594,1594,0,337013.829,0.994,0.041,-0.042,0.093,2493,0,187,2279,144,1109,40,826,0,0.000,1,0,0.162,0.002,-0.160,0.020,-0.020,-0.077,-0.090,0.996,0.000,-0.002,0.000,0.000,0.000,0.000,0.000,0,2,0,3,7,255,918,250,691,918
stim,1594,1594,0,337018.829,0.994,0.041,-0.042,0.093,2483,0,185,2279,144,1103,37,815,0,0.000,1,0,0.104,0.002,-0.100,0.020,-0.020,-0.078,-0.091,0.996,0.000,-0.002,0.004,0.000,0.000,0.000,0.000,0,2,0,3,7,255,918,250,696,918
stim,1594,1594,0,337023.829,0.994,0.041,-0.042,0.093,2479,0,189,2271,149,1115,41,822,0,0.000,1,0,0.104,0.004,-0.100,0.020,-0.020,-0.076,-0.090,0.995,0.000,-0.004,0.004,0.000,0.000,0.000,0.000,0,2,0,3,7,255,918,250,701,918
stim,1594,1594,0,337028.829,0.994,0.041,-0.042,0.093,2503,0,191,2286,151,1107,39,817,0,0.000,1,0,0.104,0.006,-0.100,0.020,-0.020,-0.076,-0.090,0.995,0.004,-0.004,-0.006,0.000,0.000,0.000,0.000,0,2,0,3,7,255,918,250,706,918
stim,1594,1594,0,337033.829,0.994,0.041,-0.042,0.093,2480,0,189,2271,144,1111,37,823,0,0.000,1,0,0.049,0.004,-0.020,-0.040,-0.020,-0.076,-0.090,0.995,0.004,-0.002,-0.006,0.000,0.000,0.000,0.000,0,2,0,3,7,255,918,250,711,918
stim,1610,1610,0,337038.829,0.994,0.041,-0.042,0.093,2479,0,185,2271,135,1103,39,815,0,0.000,1,0,0.110,0.004,-0.100,0.020,0.040,-0.076,-0.089,0.996,0.004,0.002,-0.006,0.000,0.000,0.000,0.000,0,2,0,3,7,255,918,250,716,918
stim,1610,1610,0,337043.829,0.994,0.041,-0.042,0.093,2475,0,199,2269,144,1115,40,807,0,0.000,1,0,0.049,0.007,-0.040,0.020,-0.020,-0.077,-0.089,0.996,0.004,0.006,-0.002,0.000,0.000,0.000,0.000,0,2,0,3,7,255,918,250,721,918
stim,1626,1626,0,337048.830,0.994,0.041,-0.042,0.093,2485,0,184,2271,154,1111,39,821,0,0.000,1,0,0.060,0.006,-0.040,0.020,0.040,-0.077,-0.090,0.997,0.000,0.006,-0.002,0.000,0.000,0.000,0.000,0,2,0,3,7,255,918,250,726,918
stim,1626,1626,0,337053.829,0.994,0.041,-0.042,0.093,2483,0,186,2285,149,1112,39,821,0,0.000,1,0,0.060,0.004,-0.040,0.020,0.040,-0.077,-0.090,0.997,0.000,0.004,0.008,0.000,0.000,0.000,0.000,0,2,0,3,7,255,918,250,731,918
stim,1626,1626,0,337058.829,0.994,0.041,-0.042,0.093,2473,0,182,2269,151,1103,38,825,0,0.000,1,0,0.060,0.004,-0.040,0.020,0.040,-0.077,-0.089,0.995,0.000,0.004,0.008,0.000,0.000,0.000,0.000,0,2,0,3,7,255,918,250,736,918
stim,1626,1626,0,337063.829,0.994,0.041,-0.042,0.093,2479,0,190,2278,149,1114,39,823,0,0.000,1,0,0.069,0.004,0.040,-0.040,0.040,-0.076,-0.090,0.995,0.000,0.004,-0.006,0.000,0.000,0.000,0.000,0,2,0,3,7,255,918,250,741,918
stim,1642,1642,0,337068.829,0.994,0.041,-0.042,0.093,2472,0,185,2271,153,1108,39,819,0,0.000,1,0,0.069,0.002,0.040,-0.040,0.040,-0.077,-0.090,0.996,0.000,0.002,-0.006,0.000,0.000,0.000,0.000,0,2,0,3,7,255,918,250,746,918
stim,1642,1642,0,337073.829,0.994,0.041,-0.042,0.093,2475,0,191,2291,159,1117,43,827,0,0.000,1,0,0.060,0.002,-0.040,-0.040,-0.020,-0.077,-0.090,0.996,0.000,0.002,0.000,0.000,0.000,0.000,0.000,0,2,0,3,7,255,918,250,751,918
stim,1674,1674,0,337078.829,0.994,0.041,-0.042,0.093,2493,0,186,2279,159,1111,42,819,0,0.000,1,0,0.069,0.002,-0.040,-0.040,0.040,-0.076,-0.090,0.996,0.000,-0.002,0.000,0.000,0.000,0.000,0.000,0,2,0,3,7,255,918,250,756,918
stim,1674,1674,0,337083.829,0.994,0.041,-0.042,0.093,2485,0,185,2285,158,1110,35,823,0,0.000,1,0,0.069,0.006,-0.040,-0.040,0.040,-0.078,-0.089,0.997,-0.004,0.004,0.000,0.000,0.000,0.000,0.000,0,2,0,3,7,255,918,250,761,918
stim,1692,1692,0,337088.829,0.994,0.041,-0.042,0.093,2488,0,185,2280,155,1112,42,821,0,0.000,1,0,0.060,0.007,-0.020,-0.040,0.040,-0.076,-0.089,0.996,0.004,0.006,0.002,0.000,0.000,0.000,0.000,0,2,0,3,7,255,918,250,766,918
stim,1692,1692,0,337093.829,0.994,0.041,-0.042,0.093,2477,0,186,2279,159,1109,36,824,0,0.000,1,0,0.049,0.014,-0.020,0.020,0.040,-0.076,-0.089,0.996,0.010,0.010,0.002,0.000,0.000,0.000,0.000,0,2,0,3,7,255,918,250,771,918
stim,1692,1692,0,337098.829,0.994,0.041,-0.042,0.093,2491,0,189,2280,151,1108,39,819,0,0.000,1,0,0.147,0.013,-0.100,-0.040,0.100,-0.077,-0.089,0.997,0.010,0.008,0.002,0.000,0.000,0.000,0.000,0,2,0,3,7,255,918,250,776,918
stim,1692,1692,0,337103.829,0.994,0.041,-0.042,0.093,2484,0,186,2272,160,1115,39,823,0,0.000,1,0,0.110,0.010,0.040,0.020,0.100,-0.077,-0.089,0.996,0.002,0.010,0.002,0.000,0.000,0.000,0.000,0,2,0,3,7,255,918,250,781,918
stim,1692,1692,0,337108.830,0.994,0.041,-0.042,0.093,2487,0,191,2280,157,1112,43,816,0,0.000,1,0,0.060,0.012,-0.020,-0.040,0.040,-0.077,-0.088,0.997,-0.002,0.012,0.006,0.000,0.000,0.000,0.000,0,2,0,3,7,255,918,250,786,918
stim,1692,1692,0,337113.829,0.994,0.041,-0.042,0.093,2479,0,186,2281,155,1109,40,819,0,0.000,1,0,0.060,0.012,-0.020,-0.040,0.040,-0.077,-0.090,0.996,-0.002,0.012,0.004,0.000,0.000,0.000,0.000,0,2,0,3,7,255,918,250,791,918
stim,1692,1692,1,337118.829,0.994,0.041,-0.042,0.093,2485,0,185,2271,157,1111,36,819,0,0.000,1,0,0.060,0.003,-0.020,-0.040,0.040,-0.076,-0.090,0.996,-0.002,0.002,0.004,0.000,0.000,0.000,0.000,0,2,1,3,7,255,918,250,796,918
stim,1692,1692,1,337123.829,0.994,0.041,-0.042,0.093,2483,0,184,2276,157,1113,40,821,0,0.000,1,0,0.110,0.003,-0.100,0.020,0.040,-0.077,-0.089,0.997,0.002,0.002,0.004,0.000,0.000,0.000,0.000,0,2,1,3,7,255,918,250,801,918
stim,1693,1693,1,337128.829,0.994,0.041,-0.042,0.093,2517,0,184,2269,159,1105,37,814,0,0.000,1,0,0.166,0.006,-0.160,0.020,0.040,-0.077,-0.089,0.995,0.002,0.006,0.002,0.000,0.000,0.000,0.000,0,2,1,3,7,255,918,250,806,918
stim,1693,1693,1,337133.829,0.994,0.041,-0.042,0.093,2475,0,187,2258,167,1113,37,824,0,0.000,1,0,0.115,0.010,-0.100,-0.040,0.040,-0.076,-0.089,0.996,0.002,0.010,-0.002,0.000,0.000,0.000,0.000,0,2,1,3,7,255,918,250,811,918
stim,1706,1706,1,337138.829,0.994,0.041,-0.042,0.093,2491,0,184,2279,169,1113,42,822,0,0.000,1,0,0.143,0.011,-0.100,-0.100,-0.020,-0.076,-0.089,0.995,0.004,0.010,-0.006,0.000,0.000,0.000,0.000,0,2,1,3,7,255,918,250,816,918
stim,1706,1706,1,337143.829,0.994,0.041,-0.042,0.093,2487,0,185,2281,165,1111,38,819,0,0.000,1,0,0.110,0.011,-0.100,-0.040,-0.020,-0.077,-0.089,0.997,0.004,0.010,-0.002,0.000,0.000,0.000,0.000,0,2,1,3,7,255,918,250,821,918
stim,1722,1722,1,337148.829,0.994,0.041,-0.042,0.093,2491,0,185,2278,161,1115,37,827,0,0.000,1,0,0.170,0.011,-0.160,-0.040,0.040,-0.076,-0.089,0.998,0.004,0.010,0.006,0.000,0.000,0.000,0.000,0,2,1,3,7,255,918,250,826,918
stim,1722,1722,1,337153.829,0.994,0.041,-0.042,0.093,2487,0,183,2283,155,1115,41,819,0,0.000,1,0,0.290,0.010,-0.220,-0.100,0.160,-0.078,-0.091,0.995,0.002,0.010,0.006,0.000,0.000,0.000,0.000,0,2,1,3,7,255,918,250,831,918
stim,1738,1738,1,337158.829,0.994,0.041,-0.042,0.093,2486,0,189,2283,159,1115,40,822,0,0.000,1,0,0.222,0.006,-0.220,0.020,-0.020,-0.077,-0.090,0.995,-0.006,0.002,-0.004,0.000,0.000,0.000,0.000,0,2,1,3,7,255,918,250,836,918
stim,1738,1738,1,337163.829,0.994,0.041,-0.042,0.093,2476,0,189,2293,147,1115,38,827,0,0.000,1,0,0.510,0.006,0.100,0.020,-0.500,-0.074,-0.085,0.997,-0.006,0.002,-0.004,0.000,0.000,0.000,0.000,0,2,1,3,7,255,918,250,841,918
stim,1770,1770,1,337168.829,0.994,0.041,-0.042,0.093,2489,0,187,2283,153,1117,39,821,0,0.000,1,0,0.224,0.040,0.040,0.020,0.220,-0.075,-0.086,1.000,0.022,0.034,0.006,0.000,0.000,0.000,0.000,0,2,1,3,7,255,918,250,846,918
stim,1770,1770,1,337173.829,0.994,0.041,-0.042,0.093,2487,0,187,2279,161,1117,37,823,0,0.000,1,0,0.873,0.040,-0.700,-0.040,0.520,-0.079,-0.096,0.996,0.022,0.034,0.006,0.000,0.000,0.000,0.000,0,2,1,3,7,255,918,250,851,918
stim,1770,1770,1,337178.829,0.994,0.041,-0.042,0.093,2500,0,187,2282,147,1117,37,827,0,0.000,1,0,0.889,0.050,-0.340,-0.040,-0.820,-0.075,-0.097,0.990,0.002,-0.050,0.004,0.000,0.000,0.000,0.000,0,2,1,3,7,255,918,250,856,918
stim,1770,1770,1,337183.829,0.994,0.041,-0.042,0.093,2491,0,189,2277,164,1115,39,819,0,0.000,1,0,1.522,0.059,0.640,-0.040,1.380,-0.083,-0.074,0.998,-0.032,-0.050,0.004,0.000,0.000,0.000,0.000,0,2,1,3,7,255,918,250,861,918
stim,1770,1770,1,337188.830,0.994,0.041,-0.042,0.093,2492,0,189,2286,149,1113,40,823,0,0.000,1,0,2.650,0.066,-0.820,0.020,-2.520,-0.070,-0.096,1.003,0.002,-0.066,0.014,0.000,0.000,0.000,0.000,0,2,1,3,7,255,918,250,866,918
stim,1770,1770,1,337193.829,0.994,0.041,-0.042,0.093,2489,0,185,2276,157,1115,37,821,0,0.000,1,0,2.302,0.069,0.100,0.020,2.300,-0.073,-0.097,0.990,0.020,-0.066,0.014,0.000,0.000,0.000,0.000,0,2,1,3,7,255,918,250,871,918
stim,1770,1770,1,337198.829,0.994,0.041,-0.042,0.093,2487,0,184,2283,149,1112,36,815,0,0.000,1,0,2.143,0.069,-0.820,-0.040,-1.980,-0.079,-0.082,0.998,0.020,-0.066,0.016,0.000,0.000,0.000,0.000,0,2,1,3,7,255,918,250,876,918
stim,1791,1791,1,337203.829,0.994,0.041,-0.042,0.093,2487,0,184,2271,160,1112,40,816,0,0.000,1,0,2.581,0.048,0.700,0.140,2.480,-0.072,-0.084,0.993,0.020,0.044,-0.038,0.000,0.000,0.000,0.000,0,2,1,3,7,255,918,250,881,918
stim,1791,1791,1,337208.829,0.994,0.041,-0.042,0.093,2473,0,188,2290,159,1117,42,821,0,0.000,1,0,2.633,0.044,-0.760,0.080,-2.520,-0.092,-0.105,1.000,-0.004,0.044,0.016,0.000,0.000,0.000,0.000,0,2,1,3,7,255,918,250,886,918
stim,1791,1791,1,337213.829,0.994,0.041,-0.042,0.093,2492,0,184,2277,199,1121,38,821,0,0.000,1,0,0.316,0.065,-0.220,-0.160,0.160,-0.054,-0.076,0.999,0.048,0.044,-0.002,0.000,0.000,0.000,0.000,0,2,1,3,7,255,918,250,891,918
stim,1791,1791,1,337218.829,0.994,0.041,-0.042,0.093,2480,0,184,2276,83,1115,37,821,0,0.000,1,0,1.898,0.082,0.040,0.260,1.880,-0.083,-0.085,0.981,-0.066,0.048,-0.002,0.000,0.000,0.000,0.000,0,2,1,3,7,255,918,250,896,918
stim,1791,1791,1,337223.829,0.994,0.041,-0.042,0.093,2487,0,184,2281,151,1111,36,815,0,0.000,1,0,1.660,0.082,0.040,0.440,-1.600,-0.094,-0.117,1.011,-0.066,0.048,-0.002,0.000,0.000,0.000,0.000,0,2,1,3,7,255,918,250,901,918
stim,1802,1802,1,337228.829,0.994,0.041,-0.042,0.093,2487,0,184,2279,360,1108,36,816,0,0.000,1,0,2.100,0.082,-1.180,-1.080,-1.360,-0.059,-0.077,1.000,-0.066,0.048,0.022,0.000,0.000,0.000,0.000,0,2,1,3,7,255,918,250,906,918
stim,1802,1802,1,337233.829,0.994,0.041,-0.042,0.093,2477,0,184,2233,187,1117,35,820,0,0.000,1,0,1.982,0.150,0.280,0.560,1.880,-0.066,-0.066,0.967,0.112,0.100,0.022,0.000,0.000,0.000,0.000,0,2,1,3,7,255,918,250,911,918
stim,1824,1824,1,337238.829,0.994,0.041,-0.042,0.093,2487,0,187,2283,91,1115,39,823,0,0.000,1,0,1.826,0.150,0.880,1.180,1.080,-0.088,-0.102,1.008,0.112,0.100,0.022,0.000,0.000,0.000,0.000,0,2,1,3,7,255,918,250,916,918
stim,1824,1824,1,337243.829,0.994,0.041,-0.042,0.093,2485,0,187,2283,149,1108,39,821,0,0.000,1,0,2.209,0.151,-0.760,-1.320,-1.600,-0.089,-0.114,1.018,-0.128,-0.080,0.136,0.000,0.000,0.000,0.000,0,2,1,3,7,255,918,250,3,918
stim,1825,1825,1,337248.829,0.994,0.041,-0.042,0.093,2478,0,185,2283,234,1112,39,821,0,0.000,1,0,2.108,0.151,-1.440,0.020,-1.540,-0.074,-0.088,0.981,-0.128,-0.080,0.136,0.000,0.000,0.000,0.000,0,2,1,3,7,255,918,250,8,918
stim,1825,1825,1,337253.829,0.994,0.041,-0.042,0.093,2475,0,187,2233,149,1115,37,824,0,0.000,1,0,0.812,0.013,-0.100,0.560,0.580,-0.065,-0.069,0.989,0.010,0.008,-0.088,0.000,0.000,0.000,0.000,0,2,1,3,7,255,918,250,13,918
stim,1834,1834,1,337258.829,0.994,0.041,-0.042,0.093,2478,0,187,2289,144,1115,39,825,0,0.000,1,0,1.522,0.075,1.060,-0.160,1.080,-0.071,-0.083,0.989,0.056,0.050,-0.088,0.000,0.000,0.000,0.000,0,2,1,3,7,255,918,250,18,918
stim,1834,1834,1,337263.829,0.994,0.041,-0.042,0.093,2504,0,189,2283,247,1112,43,823,0,0.000,1,0,0.880,0.075,0.640,0.500,0.340,-0.083,-0.098,1.001,0.056,0.050,-0.072,0.000,0.000,0.000,0.000,0,2,1,3,7,255,918,250,23,918
stim,1834,1834,1,337268.829,0.994,0.041,-0.042,0.093,2490,0,185,2286,599,1115,36,823,0,0.000,1,0,0.694,0.092,-0.340,-0.340,-0.500,-0.083,-0.102,1.007,-0.072,-0.058,0.062,0.000,0.000,0.000,0.000,0,2,1,3,7,255,918,250,28,918
stim,1866,1866,1,337273.829,0.994,0.041,-0.042,0.093,2499,0,187,2287,633,1107,43,812,0,0.000,1,0,0.859,0.092,-0.640,-0.280,-0.500,-0.078,-0.094,0.997,-0.072,-0.058,0.062,0.000,0.000,0.000,0.000,0,2,1,3,7,255,918,250,33,918
stim,1866,1866,1,337278.829,0.994,0.041,-0.042,0.093,2505,0,185,2280,688,1113,38,817,0,0.000,1,0,0.426,0.036,-0.400,-0.040,-0.140,-0.074,-0.088,0.989,-0.020,-0.030,0.016,0.000,0.000,0.000,0.000,0,2,1,3,7,255,918,250,38,918
stim,1866,1866,1,337283.829,0.994,0.041,-0.042,0.093,2486,0,182,2276,325,1104,41,819,0,0.000,1,0,0.262,0.020,-0.020,0.140,0.220,-0.075,-0.085,0.992,0.018,0.008,-0.040,0.000,0.000,0.000,0.000,0,2,1,3,7,255,918,250,43,918
stim,1866,1866,1,337288.829,0.994,0.041,-0.042,0.093,2483,0,181,2285,527,1111,30,819,0,0.000,1,0,0.378,0.038,0.160,-0.040,0.340,-0.075,-0.086,0.997,0.018,0.034,-0.040,0.000,0.000,0.000,0.000,0,2,1,3,7,255,918,250,48,918
stim,1866,1866,1,337293.829,0.994,0.041,-0.042,0.093,2475,0,179,2271,614,1111,41,823,0,0.000,1,0,0.230,0.038,0.160,-0.040,0.160,-0.077,-0.090,0.997,0.016,0.034,0.004,0.000,0.000,0.000,0.000,0,2,1,3,7,255,918,250,53,918
stim,1866,1866,1,337298.829,0.994,0.041,-0.042,0.093,2478,0,181,2279,963,1112,37,815,0,0.000,1,0,0.170,0.004,0.160,-0.040,0.040,-0.076,-0.091,0.997,-0.002,0.004,0.008,0.000,0.000,0.000,0.000,0,2,1,3,7,255,918,250,58,918
stim,1890,1890,1,337303.829,0.994,0.041,-0.042,0.093,2501,0,181,2277,1336,1112,37,815,0,0.000,1,0,0.110,0.003,0.100,0.020,0.040,-0.076,-0.090,0.996,-0.002,-0.002,0.008,0.000,0.000,0.000,0.000,0,2,1,3,7,255,918,250,63,918
stim,1890,1890,1,337308.829,0.994,0.041,-0.042,0.093,2474,0,185,2217,45,1117,39,815,0,0.000,1,0,0.147,0.008,0.100,-0.040,0.100,-0.077,-0.091,0.998,-0.002,-0.008,0.008,0.000,0.000,0.000,0.000,0,2,1,3,7,255,918,250,68,918
stim,1890,1890,1,337313.829,0.994,0.041,-0.042,0.093,2485,0,179,2281,1195,1103,43,821,0,0.000,1,0,0.049,0.002,-0.020,-0.040,-0.020,-0.076,-0.089,0.997,0.000,-0.002,0.006,0.000,0.000,0.000,0.000,0,2,1,3,7,255,918,250,73,918
stim,1890,1890,1,337318.829,0.994,0.041,-0.042,0.093,2487,0,176,2276,789,1113,35,813,0,0.000,1,0,0.147,0.012,-0.020,-0.040,-0.140,-0.076,-0.088,0.996,0.002,0.012,0.006,0.000,0.000,0.000,0.000,0,2,1,3,7,255,918,250,78,918
stim,1891,1891,1,337323.829,0.994,0.041,-0.042,0.093,2479,0,175,2279,851,1112,38,813,0,0.000,1,0,0.134,0.016,-0.100,-0.040,-0.080,-0.076,-0.088,0.996,0.002,0.016,0.002,0.000,0.000,0.000,0.000,0,2,1,3,7,255,918,250,83,918
stim,1891,1891,1,337328.829,0.994,0.041,-0.042,0.093,2473,0,175,2267,374,1112,36,811,0,0.000,1,0,0.222,0.016,-0.220,0.020,-0.020,-0.076,-0.091,0.997,0.002,0.016,0.002,0.000,0.000,0.000,0.000,0,2,1,3,7,255,918,250,88,918
stim,1914,1914,1,337333.829,0.994,0.041,-0.042,0.093,2488,0,173,2282,947,1111,37,811,0,0.000,1,0,0.286,0.006,-0.280,-0.040,0.040,-0.077,-0.091,0.997,0.000,-0.006,0.012,0.000,0.000,0.000,0.000,0,2,1,3,7,255,918,250,93,918
stim,1914,1914,1,337338.829,0.994,0.041,-0.042,0.093,2488,0,179,2272,743,1113,36,816,0,0.000,1,0,0.224,0.006,-0.220,0.020,0.040,-0.077,-0.088,0.997,0.000,-0.006,0.012,0.000,0.000,0.000,0.000,0,2,1,3,7,255,918,250,98,918
stim,1914,1914,1,337343.829,0.994,0.041,-0.042,0.093,2488,0,185,2277,884,1113,40,819,0,0.000,1,0,0.193,0.000,-0.100,-0.040,0.160,-0.075,-0.090,0.997,0.000,0.000,0.010,0.000,0.000,0.000,0.000,0,2,1,3,7,255,918,250,103,918
stim,1914,1914,1,337348.829,0.994,0.041,-0.042,0.093,2500,0,183,2291,19,1109,40,815,0,0.000,1,0,0.143,0.021,-0.100,0.020,0.100,-0.073,-0.088,0.995,0.016,0.014,0.006,0.000,0.000,0.000,0.000,0,2,1,3,7,255,918,250,108,918
stim,1930,1930,1,337353.829,0.994,0.041,-0.042,0.093,2474,0,179,2283,452,1112,37,814,0,0.000,1,0,0.035,0.035,-0.020,0.020,-0.020,-0.073,-0.087,0.996,0.032,0.014,-0.002,0.000,0.000,0.000,0.000,0,2,1,3,7,255,918,250,113,918
stim,1930,1930,1,337358.829,0.994,0.041,-0.042,0.093,2472,0,181,2257,589,1113,39,820,0,0.000,1,0,0.343,0.035,-0.220,-0.040,-0.260,-0.077,-0.089,0.995,0.032,0.014,-0.012,0.000,0.000,0.000,0.000,0,2,1,3,7,255,918,250,118,918
stim,1946,1946,1,337363.829,0.994,0.041,-0.042,0.093,2487,0,175,2272,249,1113,35,816,0,0.000,1,0,0.384,0.011,-0.280,-0.040,-0.260,-0.079,-0.094,0.996,-0.004,0.010,-0.002,0.000,0.000,0.000,0.000,0,2,1,3,7,255,918,250,123,918
stim,1946,1946,0,337368.829,0.994,0.041,-0.042,0.093,2489,0,176,2289,792,1109,37,814,0,0.000,1,0,0.281,0.042,-0.280,0.020,-0.020,-0.081,-0.093,0.997,-0.036,-0.022,0.002,0.000,0.000,0.000,0.000,0,2,0,3,7,255,918,250,128,918
stim,1962,1962,0,337373.829,0.994,0.041,-0.042,0.093,2480,0,181,2277,448,1113,31,813,0,0.000,1,0,0.242,0.042,-0.220,0.020,0.100,-0.079,-0.090,0.997,-0.036,-0.022,0.014,0.000,0.000,0.000,0.000,0,2,0,3,7,255,918,250,133,918
stim,1962,1962,0,337378.829,0.994,0.041,-0.042,0.093,2484,0,183,2277,368,1112,40,821,0,0.000,1,0,0.180,0.022,-0.020,0.080,0.160,-0.074,-0.086,0.996,-0.022,0.002,0.014,0.000,0.000,0.000,0.000,0,2,0,3,7,255,918,250,138,918
stim,1962,1962,0,337383.829,0.994,0.041,-0.042,0.093,2501,0,184,2280,187,1112,41,815,0,0.000,1,0,0.035,0.025,-0.020,0.020,-0.020,-0.075,-0.087,0.994,0.012,0.022,-0.002,0.000,0.000,0.000,0.000,0,2,0,3,7,255,918,250,143,918
stim,1962,1962,0,337388.830,0.994,0.041,-0.042,0.093,2481,0,175,2275,151,1101,37,819,0,0.000,1,0,0.235,0.025,-0.220,0.020,-0.080,-0.079,-0.089,0.993,0.012,0.022,-0.020,0.000,0.000,0.000,0.000,0,2,0,3,7,255,918,250,148,918
stim,1963,1963,0,337393.829,0.994,0.041,-0.042,0.093,2487,0,183,2280,92,1113,39,815,0,0.000,1,0,0.350,0.022,-0.340,0.020,-0.080,-0.078,-0.090,0.996,-0.020,0.008,-0.020,0.000,0.000,0.000,0.000,0,2,0,3,7,255,918,250,153,918
stim,1963,1963,0,337398.829,0.994,0.041,-0.042,0.093,2485,0,180,2281,159,1108,38,815,0,0.000,1,0,0.281,0.022,-0.280,0.020,-0.020,-0.077,-0.089,0.997,-0.020,0.008,0.000,0.000,0.000,0.000,0.000,0,2,0,3,7,255,918,250,158,918
stim,1978,1978,0,337403.829,0.994,0.041,-0.042,0.093,2478,0,180,2278,83,1108,41,819,0,0.000,1,0,0.235,0.008,-0.220,0.020,-0.080,-0.075,-0.089,0.996,-0.002,0.008,0.000,0.000,0.000,0.000,0.000,0,2,0,3,7,255,918,250,163,918
stim,1978,1978,0,337408.829,0.994,0.041,-0.042,0.093,2475,0,187,2270,888,1108,39,816,0,0.000,1,0,0.224,0.008,-0.220,0.020,0.040,-0.076,-0.090,0.997,0.000,0.008,0.006,0.000,0.000,0.000,0.000,0,2,0,3,7,255,918,250,168,918
stim,1978,1978,0,337413.829,0.994,0.041,-0.042,0.093,2473,0,181,2268,283,1107,37,811,0,0.000,1,0,0.224,0.013,-0.220,0.020,0.040,-0.075,-0.089,0.995,0.012,0.006,0.000,0.000,0.000,0.000,0.000,0,2,0,3,7,255,918,250,173,918
stim,1978,1978,0,337418.829,0.994,0.041,-0.042,0.093,2486,0,183,2283,256,1108,38,819,0,0.000,1,0,0.255,0.017,-0.220,0.080,0.100,-0.075,-0.088,0.996,0.016,0.006,-0.004,0.000,0.000,0.000,0.000,0,2,0,3,7,255,918,250,178,918
stim,1994,1994,0,337423.829,0.994,0.041,-0.042,0.093,2477,0,181,2276,544,1112,33,821,0,0.000,1,0,0.477,0.017,-0.460,0.080,0.100,-0.078,-0.093,0.997,0.016,0.006,-0.004,0.000,0.000,0.000,0.000,0,2,0,3,7,255,918,250,183,918
stim,1994,1994,0,337428.829,0.994,0.041,-0.042,0.093,2491,0,182,2277,892,1108,43,815,0,0.000,1,0,0.566,0.034,-0.520,-0.100,-0.200,-0.082,-0.095,0.997,-0.024,-0.024,0.010,0.000,0.000,0.000,0.000,0,2,0,3,7,255,918,250,188,918
stim,2010,2010,0,337433.829,0.994,0.041,-0.042,0.093,2491,0,182,2278,700,1107,39,819,0,0.000,1,0,0.625,0.034,-0.340,-0.160,-0.500,-0.078,-0.093,0.996,-0.024,-0.024,0.010,0.000,0.000,0.000,0.000,0,2,0,3,7,255,918,250,193,918
stim,2010,2010,0,337438.829,0.994,0.041,-0.042,0.093,2478,0,184,2272,727,1107,37,820,0,0.000,1,0,0.355,0.033,0.340,0.020,0.100,-0.071,-0.083,0.996,-0.022,-0.024,0.002,0.000,0.000,0.000,0.000,0,2,0,3,7,255,918,250,198,918
stim,2026,2026,0,337443.829,0.994,0.041,-0.042,0.093,2479,0,182,2271,392,1113,39,816,0,0.000,1,0,0.740,0.036,0.100,0.320,0.660,-0.073,-0.087,0.993,0.030,0.020,-0.012,0.000,0.000,0.000,0.000,0,2,0,3,7,255,918,250,203,918
stim,2026,2026,0,337448.829,0.994,0.041,-0.042,0.093,2475,0,183,2257,360,1117,37,823,0,0.000,1,0,0.904,0.036,-0.820,0.020,-0.380,-0.078,-0.094,0.997,0.030,0.020,-0.012,0.000,0.000,0.000,0.000,0,2,0,3,7,255,918,250,208,918
stim,2026,2026,0,337453.829,0.994,0.041,-0.042,0.093,2493,0,187,2281,713,1113,39,821,0,0.000,1,0,0.626,0.036,-0.280,-0.460,-0.320,-0.073,-0.083,0.997,0.030,0.020,0.004,0.000,0.000,0.000,0.000,0,2,0,3,7,255,918,250,213,918
stim,2026,2026,0,337458.829,0.994,0.041,-0.042,0.093,2489,0,184,2279,237,1112,40,815,0,0.000,1,0,1.888,0.043,1.000,0.560,1.500,-0.082,-0.095,0.991,-0.020,-0.038,0.004,0.000,0.000,0.000,0.000,0,2,0,3,7,255,918,250,218,918
stim,2026,2026,0,337463.829,0.994,0.041,-0.042,0.093,2493,0,186,2289,487,1113,43,823,0,0.000,1,0,2.218,0.077,-1.000,0.020,-1.980,-0.085,-0.110,1.007,-0.064,-0.042,0.004,0.000,0.000,0.000,0.000,0,2,0,3,7,255,918,250,223,918
stim,2074,2074,0,337468.829,0.994,0.041,-0.042,0.093,2477,0,185,2266,501,1111,40,817,0,0.000,1,0,1.650,0.077,-0.580,-1.440,-0.560,-0.050,-0.054,0.993,-0.064,-0.042,-0.036,0.000,0.000,0.000,0.000,0,2,0,3,7,255,918,250,228,918
stim,2074,2074,0,337473.829,0.994,0.041,-0.042,0.093,2491,0,183,2282,841,1115,41,817,0,0.000,1,0,5.057,0.150,1.500,2.160,4.320,-0.094,-0.102,0.975,-0.110,-0.102,-0.082,0.000,0.000,0.000,0.000,0,2,0,3,7,255,918,250,233,918
stim,2074,2074,0,337478.829,0.994,0.041,-0.042,0.093,2485,0,187,2279,521,1105,36,824,0,0.000,1,0,5.806,0.173,-1.920,-0.460,-5.460,-0.088,-0.120,1.029,-0.140,-0.102,-0.082,0.000,0.000,0.000,0.000,0,2,0,3,7,255,918,250,238,918
stim,2074,2074,0,337483.829,0.994,0.041,-0.042,0.093,2487,0,189,2277,675,1111,39,816,0,0.000,1,0,3.573,0.173,0.820,-2.240,2.660,-0.042,-0.034,0.983,-0.140,-0.102,-0.178,0.000,0.000,0.000,0.000,0,2,0,3,7,255,918,250,243,918
stim,2074,2074,0,337488.830,0.994,0.041,-0.042,0.093,2475,0,184,2268,762,1111,37,812,0,0.000,1,0,4.331,0.281,-0.020,4.040,1.560,-0.114,-0.142,0.969,-0.140,-0.244,-0.186,0.000,0.000,0.000,0.000,0,2,0,3,7,255,918,250,248,918
stim,2074,2074,0,337493.829,0.994,0.041,-0.042,0.093,2491,0,185,2279,631,1108,37,821,0,0.000,1,0,6.043,0.450,-1.060,-3.460,-4.840,-0.048,-0.061,1.048,0.364,0.264,-0.186,0.000,0.000,0.000,0.000,0,2,0,3,7,255,918,250,253,918
stim,2090,2090,0,337498.829,0.994,0.041,-0.042,0.093,2480,0,183,2283,856,1112,40,820,0,0.000,1,0,6.337,0.244,1.380,1.420,6.020,-0.093,-0.099,0.942,-0.224,-0.098,-0.186,0.000,0.000,0.000,0.000,0,2,0,3,7,255,918,250,258,918
stim,2090,2090,0,337503.829,0.994,0.041,-0.042,0.093,2480,0,185,2281,595,1113,40,821,0,0.000,1,0,6.158,0.098,-1.740,0.560,-5.880,-0.069,-0.091,1.030,0.098,-0.002,0.330,0.000,0.000,0.000,0.000,0,2,0,3,7,255,918,250,263,918
stim,2091,2091,0,337508.829,0.994,0.041,-0.042,0.093,2475,0,175,2269,619,1112,40,815,0,0.000,1,0,5.742,0.052,1.620,-1.760,5.220,-0.081,-0.085,0.982,-0.052,-0.002,-0.136,0.000,0.000,0.000,0.000,0,2,0,3,7,255,918,250,268,918
stim,2091,2091,0,337513.829,0.994,0.041,-0.042,0.093,2479,0,183,2278,613,1109,37,823,0,0.000,1,0,5.002,0.032,-1.620,1.840,-4.360,-0.072,-0.095,0.993,0.032,-0.002,-0.024,0.000,0.000,0.000,0.000,0,2,0,3,7,255,918,250,273,918
stim,2092,2092,0,337518.829,0.994,0.041,-0.042,0.093,2483,0,183,2275,649,1113,37,822,0,0.000,1,0,4.476,0.052,1.440,-1.560,3.940,-0.081,-0.087,1.004,-0.034,0.040,-0.024,0.000,0.000,0.000,0.000,0,2,0,3,7,255,918,250,278,918
stim,2092,2092,0,337523.829,0.994,0.041,-0.042,0.093,2477,0,185,2279,684,1112,39,823,0,0.000,1,0,3.552,0.034,-1.060,1.120,-3.200,-0.073,-0.091,0.989,0.024,-0.024,-0.024,0.000,0.000,0.000,0.000,0,2,0,3,7,255,918,250,283,918
stim,2106,2106,0,337528.829,0.994,0.041,-0.042,0.093,2479,0,187,2277,568,1109,37,825,0,0.000,1,0,3.016,0.034,0.880,-0.960,2.720,-0.082,-0.091,1.000,-0.034,0.004,0.046,0.000,0.000,0.000,0.000,0,2,0,3,7,255,918,250,288,918
stim,2106,2106,0,337533.829,0.994,0.041,-0.042,0.093,2491,0,184,2285,628,1107,37,814,0,0.000,1,0,2.251,0.030,-0.520,0.620,-2.100,-0.070,-0.090,0.993,0.024,-0.018,-0.030,0.000,0.000,0.000,0.000,0,2,0,3,7,255,918,250,293,918
stim,2106,2106,0,337538.829,0.994,0.041,-0.042,0.093,2486,0,186,2278,571,1115,41,823,0,0.000,1,0,2.207,0.050,0.760,-0.540,2.000,-0.084,-0.087,0.998,-0.050,0.004,0.024,0.000,0.000,0.000,0.000,0,2,0,3,7,255,918,250,298,918
stim,2106,2106,0,337543.829,0.994,0.041,-0.042,0.093,2487,0,187,2276,563,1111,37,823,0,0.000,1,0,1.764,0.040,-0.820,0.260,-1.540,-0.071,-0.097,0.993,0.036,-0.018,-0.024,0.000,0.000,0.000,0.000,0,2,0,3,7,255,918,250,303,918
stim,2123,2123,0,337548.829,0.994,0.041,-0.042,0.093,2479,0,183,2284,631,1113,40,819,0,0.000,1,0,1.966,0.051,1.320,-0.220,1.440,-0.081,-0.082,0.998,-0.026,0.044,0.018,0.000,0.000,0.000,0.000,0,2,0,3,7,255,918,250,308,918
stim,2123,2123,0,337553.829,0.994,0.041,-0.042,0.093,2476,0,187,2259,627,1123,38,825,0,0.000,1,0,1.837,0.018,-1.500,0.020,-1.060,-0.078,-0.090,0.996,-0.018,0.004,0.004,0.000,0.000,0.000,0.000,0,2,0,3,7,255,918,250,313,918
stim,2138,2138,0,337558.829,0.994,0.041,-0.042,0.093,2501,0,185,2284,645,1115,40,819,0,0.000,1,0,1.523,0.018,1.380,0.080,0.640,-0.070,-0.101,0.994,-0.018,0.004,0.004,0.000,0.000,0.000,0.000,0,2,0,3,7,255,918,250,318,918
stim,2138,2138,0,337563.829,0.994,0.041,-0.042,0.093,2476,0,185,2281,586,1113,38,824,0,0.000,1,0,0.707,0.018,-0.580,-0.220,0.340,-0.086,-0.065,1.003,-0.018,0.004,0.004,0.000,0.000,0.000,0.000,0,2,0,3,7,255,918,250,323,918
stim,2138,2138,0,337568.829,0.994,0.041,-0.042,0.093,2500,0,191,2272,581,1111,37,826,0,0.000,1,0,1.110,0.120,-0.460,0.140,-1.000,-0.068,-0.115,0.990,0.030,-0.116,-0.016,0.000,0.000,0.000,0.000,0,2,0,3,7,255,918,250,328,918
stim,2138,2138,0,337573.829,0.994,0.041,-0.042,0.093,2486,0,185,2287,629,1116,43,819,0,0.000,1,0,1.520,0.090,1.000,-0.100,1.140,-0.078,-0.081,0.997,-0.002,0.090,0.006,0.000,0.000,0.000,0.000,0,2,0,3,7,255,918,250,333,918
stim,2169,2169,0,337578.829,0.994,0.041,-0.042,0.093,2488,0,188,2277,563,1110,36,823,0,0.000,1,0,0.764,0.090,-0.700,-0.160,-0.260,-0.082,-0.075,1.002,-0.002,0.090,0.006,0.000,0.000,0.000,0.000,0,2,0,3,7,255,918,250,338,918
stim,2169,2169,0,337583.829,0.994,0.041,-0.042,0.093,2475,0,187,2265,603,1117,35,827,0,0.000,1,0,0.652,0.090,-0.220,0.200,-0.580,-0.070,-0.111,0.990,-0.002,0.090,0.006,0.000,0.000,0.000,0.000,0,2,0,3,7,255,918,250,343,918
stim,2169,2169,0,337588.830,0.994,0.041,-0.042,0.093,2491,0,189,2276,611,1115,37,816,0,0.000,1,0,0.735,0.064,0.280,-0.160,0.660,-0.077,-0.083,0.996,0.006,0.064,-0.008,0.000,0.000,0.000,0.000,0,2,0,3,7,255,918,250,348,918
stim,2169,2169,0,337593.829,0.994,0.041,-0.042,0.093,2487,0,187,2277,579,1112,41,820,0,0.000,1,0,0.173,0.064,-0.100,0.020,-0.140,-0.081,-0.074,1.001,0.006,0.064,-0.008,0.000,0.000,0.000,0.000,0,2,0,3,7,255,918,250,353,918
stim,2169,2169,0,337598.829,0.994,0.041,-0.042,0.093,2489,0,184,2277,616,1108,37,816,0,0.000,1,0,0.477,0.065,-0.400,0.020,-0.260,-0.075,-0.104,0.995,-0.012,0.064,-0.002,0.000,0.000,0.000,0.000,0,2,0,3,7,255,918,250,358,918
stim,2169,2169,0,337603.829,0.994,0.041,-0.042,0.093,2479,0,184,2279,608,1112,37,824,0,0.000,1,0,0.396,0.049,-0.280,0.020,0.280,-0.076,-0.094,0.991,-0.012,-0.048,-0.002,0.000,0.000,0.000,0.000,0,2,0,3,7,255,918,250,363,918
stim,2169,2169,0,337608.829,0.994,0.041,-0.042,0.093,2492,0,187,2281,573,1114,41,820,0,0.000,1,0,0.408,0.049,0.400,0.020,-0.080,-0.080,-0.073,0.998,-0.008,-0.048,-0.002,0.000,0.000,0.000,0.000,0,2,0,3,7,255,918,250,368,918
stim,2191,2191,0,337613.829,0.994,0.041,-0.042,0.093,2491,0,187,2277,554,1109,39,828,0,0.000,1,0,0.199,0.048,-0.100,-0.100,-0.140,-0.074,-0.094,1.001,-0.002,-0.048,0.004,0.000,0.000,0.000,0.000,0,2,0,3,7,255,918,250,373,918
stim,2191,2191,0,337618.829,0.994,0.041,-0.042,0.093,2487,0,185,2275,572,1111,38,823,0,0.000,1,0,0.778,0.050,-0.700,0.020,0.340,-0.075,-0.104,0.994,-0.002,-0.050,0.004,0.000,0.000,0.000,0.000,0,2,0,3,7,255,918,250,378,918
stim,2191,2191,0,337623.829,0.994,0.041,-0.042,0.093,2480,0,188,2279,600,1112,39,819,0,0.000,1,0,0.069,0.053,0.040,-0.040,0.040,-0.081,-0.079,0.992,-0.018,-0.050,-0.010,0.000,0.000,0.000,0.000,0,2,0,3,7,255,918,250,383,918
stim,2202,2202,0,337628.829,0.994,0.041,-0.042,0.093,2489,0,189,2293,563,1113,41,819,0,0.000,1,0,0.838,0.096,0.460,0.020,-0.700,-0.076,-0.080,1.000,-0.018,0.094,-0.010,0.000,0.000,0.000,0.000,0,2,0,3,7,255,918,250,388,918
stim,2202,2202,0,337633.829,0.994,0.041,-0.042,0.093,2488,0,187,2289,553,1110,36,824,0,0.000,1,0,0.413,0.098,-0.400,0.020,0.100,-0.070,-0.105,1.000,0.026,0.094,0.030,0.000,0.000,0.000,0.000,0,2,0,3,7,255,918,250,393,918
stim,2223,2223,0,337638.829,0.994,0.041,-0.042,0.093,2479,0,184,2281,620,1117,40,823,0,0.000,1,0,1.188,0.058,-0.700,0.020,0.960,-0.078,-0.095,0.990,0.026,-0.052,0.030,0.000,0.000,0.000,0.000,0,2,0,3,7,255,918,250,398,918
stim,2223,2223,0,337643.829,0.994,0.041,-0.042,0.093,2476,0,189,2269,625,1113,36,815,0,0.000,1,0,0.298,0.062,0.220,0.020,-0.200,-0.086,-0.073,0.994,-0.034,-0.052,-0.030,0.000,0.000,0.000,0.000,0,2,0,3,7,255,918,250,403,918
stim,2223,2223,0,337648.829,0.994,0.041,-0.042,0.093,2493,0,185,2279,629,1113,37,821,0,0.000,1,0,1.380,0.048,0.220,0.080,-1.360,-0.074,-0.086,1.003,-0.034,0.034,-0.030,0.000,0.000,0.000,0.000,0,2,0,3,7,255,918,250,408,918
stim,2223,2223,0,337653.829,0.994,0.041,-0.042,0.093,2479,0,188,2272,556,1112,41,824,0,0.000,1,0,0.701,0.047,-0.700,-0.040,-0.020,-0.065,-0.104,0.997,0.032,0.034,0.016,0.000,0.000,0.000,0.000,0,2,0,3,7,255,918,250,413,918
stim,2223,2223,0,337658.829,0.994,0.041,-0.042,0.093,2483,0,189,2272,551,1113,39,829,0,0.000,1,0,1.611,0.053,-0.580,-0.100,1.500,-0.077,-0.094,0.988,0.032,-0.042,0.016,0.000,0.000,0.000,0.000,0,2,0,3,7,255,918,250,418,918
stim,2234,2234,0,337663.829,0.994,0.041,-0.042,0.093,2483,0,187,2274,517,1109,37,813,0,0.000,1,0,0.495,0.048,0.280,0.080,0.400,-0.091,-0.081,0.993,-0.024,-0.042,-0.024,0.000,0.000,0.000,0.000,0,2,0,3,7,255,918,250,423,918
stim,2234,2234,0,337668.829,0.994,0.041,-0.042,0.093,2483,0,187,2279,529,1113,41,819,0,0.000,1,0,1.491,0.059,0.160,0.080,-1.480,-0.080,-0.085,1.001,-0.024,0.054,-0.024,0.000,0.000,0.000,0.000,0,2,0,3,7,255,918,250,428,918
stim,2266,2266,0,337673.829,0.994,0.041,-0.042,0.093,2480,0,185,2275,565,1107,40,827,0,0.000,1,0,1.104,0.058,-0.460,0.080,-1.000,-0.064,-0.093,0.999,-0.022,0.054,0.022,0.000,0.000,0.000,0.000,0,2,0,3,7,255,918,250,433,918
stim,2266,2266,0,337678.829,0.994,0.041,-0.042,0.093,2501,0,184,2287,589,1109,43,819,0,0.000,1,0,1.042,0.078,-0.520,0.080,0.900,-0.068,-0.092,0.993,0.068,-0.038,0.022,0.000,0.000,0.000,0.000,0,2,0,3,7,255,918,250,438,918
stim,2266,2266,0,337683.829,0.994,0.041,-0.042,0.093,2477,0,187,2280,587,1109,40,815,0,0.000,1,0,1.211,0.078,-0.160,0.020,1.200,-0.084,-0.089,0.994,0.068,-0.038,-0.018,0.000,0.000,0.000,0.000,0,2,0,3,7,255,918,250,443,918
stim,2266,2266,0,337688.829,0.994,0.041,-0.042,0.093,2480,0,189,2289,566,1107,37,825,0,0.000,1,0,0.224,0.077,-0.100,0.020,-0.200,-0.088,-0.090,0.995,-0.076,0.014,-0.018,0.000,0.000,0.000,0.000,0,2,0,3,7,255,918,250,448,918
stim,2266,2266,0,337693.829,0.994,0.041,-0.042,0.093,2477,0,187,2275,564,1107,35,819,0,0.000,1,0,1.120,0.077,-0.020,0.020,-1.120,-0.075,-0.089,0.995,-0.076,0.014,-0.014,0.000,0.000,0.000,0.000,0,2,0,3,7,255,918,250,453,918
stim,2266,2266,0,337698.829,0.994,0.041,-0.042,0.093,2480,0,184,2272,399,1115,40,822,0,0.000,1,0,0.330,0.018,-0.020,0.080,-0.320,-0.067,-0.089,0.998,0.018,0.002,0.002,0.000,0.000,0.000,0.000,0,2,0,3,7,255,918,250,458,918
stim,2289,2289,0,337703.829,0.994,0.041,-0.042,0.093,2483,0,185,2267,393,1113,36,816,0,0.000,1,0,0.566,0.021,-0.220,-0.040,0.520,-0.074,-0.090,0.998,0.020,-0.006,0.008,0.000,0.000,0.000,0.000,0,2,0,3,7,255,918,250,463,918
stim,2289,2289,0,337708.829,0.994,0.041,-0.042,0.093,2487,0,189,2279,373,1108,41,821,0,0.000,1,0,0.526,0.021,-0.400,-0.040,0.340,-0.080,-0.089,0.995,0.020,-0.006,0.008,0.000,0.000,0.000,0.000,0,2,0,3,7,255,918,250,468,918
stim,2289,2289,0,337713.829,0.994,0.041,-0.042,0.093,2475,0,184,2270,367,1107,37,815,0,0.000,1,0,0.177,0.023,-0.100,-0.040,-0.140,-0.078,-0.093,0.993,-0.022,-0.006,-0.010,0.000,0.000,0.000,0.000,0,2,0,3,7,255,918,250,473,918
stim,2289,2289,0,337718.829,0.994,0.041,-0.042,0.093,2485,0,189,2276,387,1107,37,824,0,0.000,1,0,0.214,0.037,0.160,0.020,-0.140,-0.076,-0.093,0.997,-0.022,-0.030,-0.010,0.000,0.000,0.000,0.000,0,2,0,3,7,255,918,250,478,918
stim,2298,2298,0,337723.829,0.994,0.041,-0.042,0.093,2483,0,185,2277,384,1113,39,824,0,0.000,1,0,0.049,0.030,-0.020,0.020,0.040,-0.075,-0.087,0.999,0.000,-0.030,0.008,0.000,0.000,0.000,0.000,0,2,0,3,7,255,918,250,483,918
stim,2298,2298,0,337728.829,0.994,0.041,-0.042,0.093,2488,0,188,2285,409,1111,43,820,0,0.000,1,0,0.170,0.016,-0.160,-0.040,0.040,-0.078,-0.088,0.996,0.000,0.016,0.008,0.000,0.000,0.000,0.000,0,2,0,3,7,255,918,250,488,918
stim,2298,2298,0,337733.829,0.994,0.041,-0.042,0.093,2495,0,190,2279,413,1112,40,825,0,0.000,1,0,0.104,0.016,-0.100,0.020,-0.020,-0.077,-0.090,0.995,-0.004,0.016,0.002,0.000,0.000,0.000,0.000,0,2,0,3,7,255,918,250,493,918
stim,2298,2298,0,337738.829,0.994,0.041,-0.042,0.093,2477,0,189,2278,408,1111,40,820,0,0.000,1,0,0.060,0.004,-0.020,-0.040,0.040,-0.076,-0.091,0.995,-0.004,-0.002,-0.006,0.000,0.000,0.000,0.000,0,2,0,3,7,255,918,250,498,918
stim,2314,2314,0,337743.829,0.994,0.041,-0.042,0.093,2480,0,187,2278,410,1111,37,823,0,0.000,1,0,0.110,0.004,-0.020,-0.040,0.100,-0.077,-0.090,0.997,-0.004,-0.002,-0.006,0.000,0.000,0.000,0.000,0,2,0,3,7,255,918,250,503,918
stim,2314,2314,0,337748.829,0.994,0.041,-0.042,0.093,2476,0,187,2251,413,1115,43,824,0,0.000,1,0,0.104,0.002,-0.100,0.020,-0.020,-0.077,-0.089,0.996,-0.002,0.000,0.002,0.000,0.000,0.000,0.000,0,2,0,3,7,255,918,250,508,918
stim,2330,2330,0,337753.829,0.994,0.041,-0.042,0.093,2492,0,189,2280,407,1111,39,816,0,0.000,1,0,0.110,0.002,-0.100,-0.040,-0.020,-0.076,-0.090,0.996,-0.002,0.000,0.002,0.000,0.000,0.000,0.000,0,2,0,3,7,255,918,250,513,918
stim,2330,2330,0,337758.829,0.994,0.041,-0.042,0.093,2480,0,185,2277,408,1109,37,824,0,0.000,1,0,0.049,0.002,0.040,0.020,-0.020,-0.076,-0.090,0.995,0.000,-0.002,-0.004,0.000,0.000,0.000,0.000,0,2,0,3,7,255,918,250,518,918
stim,2330,2330,0,337763.829,0.994,0.041,-0.042,0.093,2501,0,189,2279,405,1112,40,828,0,0.000,1,0,0.060,0.002,0.040,0.020,0.040,-0.077,-0.089,0.996,0.000,-0.002,-0.004,0.000,0.000,0.000,0.000,0,2,0,3,7,255,918,250,523,918
stim,2330,2330,0,337768.829,0.994,0.041,-0.042,0.093,2477,0,187,2277,407,1110,36,822,0,0.000,1,0,0.060,0.004,-0.020,-0.040,0.040,-0.076,-0.088,0.996,0.000,0.004,-0.004,0.000,0.000,0.000,0.000,0,2,0,3,7,255,918,250,528,918
stim,2362,2362,0,337773.829,0.994,0.041,-0.042,0.093,2477,0,184,2271,403,1111,38,816,0,0.000,1,0,0.115,0.004,-0.100,-0.040,0.040,-0.076,-0.090,0.996,0.000,0.004,-0.002,0.000,0.000,0.000,0.000,0,2,0,3,7,255,918,250,533,918
stim,2362,2362,0,337778.829,0.994,0.041,-0.042,0.093,2475,0,189,2255,413,1121,37,824,0,0.000,1,0,0.035,0.003,-0.020,0.020,-0.020,-0.076,-0.089,0.995,0.002,0.002,-0.004,0.000,0.000,0.000,0.000,0,2,0,3,7,255,918,250,538,918
stim,2362,2362,0,337783.829,0.994,0.041,-0.042,0.093,2494,0,189,2280,408,1113,41,816,0,0.000,1,0,0.049,0.002,-0.020,0.020,0.040,-0.077,-0.089,0.996,0.000,0.002,-0.004,0.000,0.000,0.000,0.000,0,2,0,3,7,255,918,250,543,918
stim,2362,2362,0,337788.830,0.994,0.041,-0.042,0.093,2480,0,183,2283,413,1110,40,820,0,0.000,1,0,0.166,0.006,-0.160,0.020,0.040,-0.078,-0.089,0.997,-0.002,0.006,-0.004,0.000,0.000,0.000,0.000,0,2,0,3,7,255,918,250,548,918
stim,2362,2362,0,337793.829,0.994,0.041,-0.042,0.093,2487,0,189,2275,423,1113,39,821,0,0.000,1,0,0.110,0.006,-0.100,0.020,0.040,-0.076,-0.090,0.996,-0.002,0.006,0.002,0.000,0.000,0.000,0.000,0,2,0,3,7,255,918,250,553,918
stim,2362,2362,0,337798.829,0.994,0.041,-0.042,0.093,2488,0,187,2280,424,1113,37,825,0,0.000,1,0,0.049,0.004,-0.020,0.020,0.040,-0.077,-0.090,0.996,-0.004,-0.002,0.002,0.000,0.000,0.000,0.000,0,2,0,3,7,255,918,250,558,918
stim,2394,2394,0,337803.829,0.994,0.041,-0.042,0.093,2501,0,185,2289,425,1113,40,821,0,0.000,1,0,0.035,0.003,-0.020,0.020,-0.020,-0.076,-0.090,0.997,0.002,-0.002,0.002,0.000,0.000,0.000,0.000,0,2,0,3,7,255,918,250,563,918
stim,2394,2394,0,337808.829,0.994,0.041,-0.042,0.093,2476,0,189,2293,420,1121,41,825,0,0.000,1,0,0.110,0.004,-0.100,0.020,0.040,-0.077,-0.090,0.997,-0.004,-0.002,0.006,0.000,0.000,0.000,0.000,0,2,0,3,7,255,918,250,568,918
stim,2394,2394,0,337813.829,0.994,0.041,-0.042,0.093,2487,0,184,2290,397,1112,37,824,0,0.000,1,0,0.110,0.002,-0.100,0.020,0.040,-0.076,-0.089,0.996,0.002,0.000,0.006,0.000,0.000,0.000,0.000,0,2,0,3,7,255,918,250,573,918
stim,2394,2394,0,337818.829,0.994,0.041,-0.042,0.093,2499,0,184,2284,409,1111,39,822,0,0.000,1,0,0.110,0.008,-0.100,0.020,0.040,-0.077,-0.090,0.997,-0.008,0.000,0.006,0.000,0.000,0.000,0.000,0,2,0,3,7,255,918,250,578,918
stim,2394,2394,0,337823.829,0.994,0.041,-0.042,0.093,2478,0,183,2286,395,1112,43,825,0,0.000,1,0,0.115,0.003,-0.100,-0.040,0.040,-0.077,-0.089,0.996,-0.002,0.002,0.002,0.000,0.000,0.000,0.000,0,2,0,3,7,255,918,250,583,918
stim,2394,2394,0,337828.829,0.994,0.041,-0.042,0.093,2486,0,187,2278,369,1115,39,823,0,0.000,1,0,0.049,0.003,-0.020,-0.040,-0.020,-0.077,-0.089,0.996,-0.002,0.002,0.002,0.000,0.000,0.000,0.000,0,2,0,3,7,255,918,250,588,918
stim,2410,2410,0,337833.829,0.994,0.041,-0.042,0.093,2477,0,185,2271,363,1109,37,815,0,0.000,1,0,0.134,0.004,-0.100,0.080,0.040,-0.077,-0.089,0.997,-0.002,0.004,0.002,0.000,0.000,0.000,0.000,0,2,0,3,7,255,918,250,593,918
stim,2410,2410,0,337838.829,0.994,0.041,-0.042,0.093,2477,0,184,2269,426,1124,36,829,0,0.000,1,0,0.162,0.010,-0.160,0.020,-0.020,-0.077,-0.089,0.997,-0.006,0.008,0.006,0.000,0.000,0.000,0.000,0,2,0,3,7,255,918,250,598,918
stim,2426,2426,0,337843.829,0.994,0.041,-0.042,0.093,2478,0,189,2281,435,1115,41,822,0,0.000,1,0,0.110,0.007,-0.100,-0.040,-0.020,-0.077,-0.089,0.997,-0.006,0.004,0.006,0.000,0.000,0.000,0.000,0,2,0,3,7,255,918,250,603,918
stim,2426,2426,0,337848.829,0.994,0.041,-0.042,0.093,2489,0,188,2277,421,1113,39,820,0,0.000,1,0,0.170,0.007,-0.160,-0.040,0.040,-0.077,-0.090,0.997,-0.006,0.004,0.006,0.000,0.000,0.000,0.000,0,2,0,3,7,255,918,250,608,918
stim,2426,2426,0,337853.829,0.994,0.041,-0.042,0.093,2513,0,187,2283,429,1112,39,826,0,0.000,1,0,0.162,0.007,-0.160,0.020,-0.020,-0.077,-0.089,0.996,-0.006,0.004,0.006,0.000,0.000,0.000,0.000,0,2,0,3,7,255,918,250,613,918
stim,2426,2426,0,337858.829,0.994,0.041,-0.042,0.093,2491,0,185,2279,415,1109,36,825,0,0.000,1,0,0.162,0.003,-0.160,0.020,-0.020,-0.076,-0.090,0.995,-0.002,-0.002,-0.004,0.000,0.000,0.000,0.000,0,2,0,3,7,255,918,250,618,918
stim,2426,2426,0,337863.829,0.994,0.041,-0.042,0.093,2475,0,184,2270,413,1107,37,815,0,0.000,1,0,0.242,0.004,-0.220,-0.100,-0.020,-0.077,-0.090,0.997,-0.002,-0.004,-0.004,0.000,0.000,0.000,0.000,0,2,0,3,7,255,918,250,623,918
stim,2426,2426,0,337868.829,0.994,0.041,-0.042,0.093,2476,0,190,2232,417,1118,41,827,0,0.000,1,0,0.224,0.006,-0.220,-0.040,-0.020,-0.077,-0.090,0.996,-0.004,-0.004,-0.004,0.000,0.000,0.000,0.000,0,2,0,3,7,255,918,250,628,918
stim,2474,2474,0,337873.829,0.994,0.041,-0.042,0.093,2487,0,189,2275,455,1113,37,823,0,0.000,1,0,0.237,0.004,-0.220,-0.040,-0.080,-0.077,-0.089,0.996,-0.004,-0.002,0.002,0.000,0.000,0.000,0.000,0,2,0,3,7,255,918,250,633,918
stim,2474,2474,0,337878.829,0.994,0.041,-0.042,0.093,2493,0,188,2279,457,1113,41,821,0,0.000,1,0,0.224,0.004,-0.220,-0.040,-0.020,-0.077,-0.088,0.996,-0.004,0.002,-0.004,0.000,0.000,0.000,0.000,0,2,0,3,7,255,918,250,638,918
stim,2490,2490,0,337883.829,0.994,0.041,-0.042,0.093,2507,0,189,2283,457,1108,39,821,0,0.000,1,0,0.224,0.006,-0.220,-0.040,-0.020,-0.077,-0.089,0.996,-0.006,0.002,-0.004,0.000,0.000,0.000,0.000,0,2,0,3,7,255,918,250,643,918
stim,2490,2490,0,337888.829,0.994,0.041,-0.042,0.093,2488,0,188,2280,441,1110,39,821,0,0.000,1,0,0.222,0.008,-0.220,0.020,-0.020,-0.077,-0.090,0.997,-0.008,0.002,-0.004,0.000,0.000,0.000,0.000,0,2,0,3,7,255,918,250,648,918
stim,2490,2490,0,337893.829,0.994,0.041,-0.042,0.093,2480,0,183,2291,455,1116,40,823,0,0.000,1,0,0.162,0.008,-0.160,0.020,-0.020,-0.076,-0.089,0.996,-0.008,0.000,-0.004,0.000,0.000,0.000,0.000,0,2,0,3,7,255,918,250,653,918
stim,2490,2490,0,337898.829,0.994,0.041,-0.042,0.093,2480,0,187,2287,447,1111,38,825,0,0.000,1,0,0.183,0.003,-0.160,-0.040,-0.080,-0.077,-0.090,0.996,-0.002,-0.002,0.002,0.000,0.000,0.000,0.000,0,2,0,3,7,255,918,250,658,918
stim,2490,2490,0,337903.829,0.994,0.041,-0.042,0.093,2486,0,189,2277,449,1112,41,820,0,0.000,1,0,0.224,0.003,-0.220,-0.040,-0.020,-0.076,-0.090,0.996,0.002,-0.002,0.002,0.000,0.000,0.000,0.000,0,2,0,3,7,255,918,250,663,918
stim,2490,2490,0,337908.829,0.994,0.041,-0.042,0.093,2477,0,185,2271,439,1107,38,815,0,0.000,1,0,0.162,0.003,-0.160,0.020,-0.020,-0.076,-0.089,0.995,0.002,-0.002,0.002,0.000,0.000,0.000,0.000,0,2,0,3,7,255,918,250,668,918
stim,2490,2490,0,337913.829,0.994,0.041,-0.042,0.093,2488,0,189,2287,447,1111,39,823,0,0.000,1,0,0.222,0.010,-0.220,0.020,-0.020,-0.076,-0.090,0.996,0.006,-0.008,-0.004,0.000,0.000,0.000,0.000,0,2,0,3,7,255,918,250,673,918
stim,2490,2490,0,337918.829,0.994,0.041,-0.042,0.093,2491,0,190,2276,445,1115,37,820,0,0.000,1,0,0.180,0.006,-0.160,0.020,-0.080,-0.077,-0.090,0.997,0.006,-0.002,-0.004,0.000,0.000,0.000,0.000,0,2,0,3,7,255,918,250,678,918
stim,2506,2506,0,337923.829,0.994,0.041,-0.042,0.093,2480,0,184,2279,457,1115,40,823,0,0.000,1,0,0.180,0.006,-0.160,0.020,-0.080,-0.076,-0.089,0.995,0.006,-0.002,-0.004,0.000,0.000,0.000,0.000,0,2,0,3,7,255,918,250,683,918
stim,2506,2506,0,337928.829,0.994,0.041,-0.042,0.093,2475,0,188,2267,455,1115,37,825,0,0.000,1,0,0.162,0.006,-0.160,0.020,-0.020,-0.077,-0.089,0.997,-0.006,0.000,0.006,0.000,0.000,0.000,0.000,0,2,0,3,7,255,918,250,688,918
stim,2506,2506,0,337933.829,0.994,0.041,-0.042,0.093,2485,0,187,2282,453,1112,36,825,0,0.000,1,0,0.162,0.002,-0.160,0.020,-0.020,-0.076,-0.089,0.996,0.002,0.000,-0.004,0.000,0.000,0.000,0.000,0,2,0,3,7,255,918,250,693,918
stim,2506,2506,0,337938.829,0.994,0.041,-0.042,0.093,2480,0,186,2281,463,1114,40,824,0,0.000,1,0,0.180,0.003,-0.160,0.080,-0.020,-0.076,-0.089,0.996,0.002,0.002,0.000,0.000,0.000,0.000,0.000,0,2,0,3,7,255,918,250,698,918
stim,2522,2522,0,337943.829,0.994,0.041,-0.042,0.093,2505,0,191,2291,471,1109,40,827,0,0.000,1,0,0.162,0.002,-0.160,0.020,-0.020,-0.077,-0.090,0.996,0.002,0.000,0.000,0.000,0.000,0.000,0.000,0,2,0,3,7,255,918,250,703,918
stim,2522,2522,0,337948.829,0.994,0.041,-0.042,0.093,2493,0,187,2279,471,1113,39,821,0,0.000,1,0,0.162,0.003,-0.160,0.020,-0.020,-0.077,-0.089,0.996,-0.002,0.002,0.000,0.000,0.000,0.000,0.000,0,2,0,3,7,255,918,250,708,918
stim,2537,2537,0,337953.830,0.994,0.041,-0.042,0.093,2484,0,189,2272,431,1110,38,823,0,0.000,1,0,0.162,0.009,-0.160,0.020,-0.020,-0.077,-0.090,0.996,-0.004,-0.008,0.002,0.000,0.000,0.000,0.000,0,2,0,3,7,255,918,250,713,918
stim,2537,2537,0,337958.829,0.994,0.041,-0.042,0.093,2477,0,197,2265,465,1113,43,825,0,0.000,1,0,0.104,0.009,-0.100,0.020,-0.020,-0.077,-0.090,0.996,-0.004,-0.008,0.002,0.000,0.000,0.000,0.000,0,2,0,3,7,255,918,250,718,918
stim,2537,2537,0,337963.829,0.994,0.041,-0.042,0.093,2479,0,189,2272,447,1111,33,822,0,0.000,1,0,0.035,0.009,-0.020,0.020,-0.020,-0.076,-0.091,0.996,-0.004,-0.008,0.002,0.000,0.000,0.000,0.000,0,2,0,3,7,255,918,250,723,918
stim,2537,2537,0,337968.829,0.994,0.041,-0.042,0.093,2480,0,189,2285,444,1109,37,823,0,0.000,1,0,0.049,0.013,-0.020,-0.040,-0.020,-0.077,-0.091,0.995,-0.004,-0.012,-0.002,0.000,0.000,0.000,0.000,0,2,0,3,7,255,918,250,728,918
stim,2537,2537,0,337973.829,0.994,0.041,-0.042,0.093,2488,0,192,2291,453,1115,40,822,0,0.000,1,0,0.049,0.013,-0.020,0.020,0.040,-0.078,-0.089,0.995,-0.006,-0.012,-0.006,0.000,0.000,0.000,0.000,0,2,0,3,7,255,918,250,733,918
stim,2570,2570,0,337978.829,0.994,0.041,-0.042,0.093,2479,0,187,2277,455,1107,33,816,0,0.000,1,0,0.049,0.008,0.040,0.020,-0.020,-0.077,-0.090,0.996,-0.008,-0.002,-0.006,0.000,0.000,0.000,0.000,0,2,0,3,7,255,918,250,738,918
stim,2570,2570,0,337983.829,0.994,0.041,-0.042,0.093,2486,0,188,2276,466,1115,41,820,0,0.000,1,0,0.060,0.008,0.040,-0.040,-0.020,-0.076,-0.090,0.996,-0.008,-0.002,-0.004,0.000,0.000,0.000,0.000,0,2,0,3,7,255,918,250,743,918
stim,2570,2570,0,337988.829,0.994,0.041,-0.042,0.093,2484,0,187,2277,475,1107,41,821,0,0.000,1,0,0.069,0.008,0.040,-0.040,0.040,-0.078,-0.089,0.996,-0.008,-0.002,0.002,0.000,0.000,0.000,0.000,0,2,0,3,7,255,918,250,748,918
stim,2570,2570,0,337993.829,0.994,0.041,-0.042,0.093,2484,0,186,2285,455,1111,40,821,0,0.000,1,0,0.069,0.003,0.040,-0.040,0.040,-0.077,-0.089,0.997,-0.002,0.002,0.002,0.000,0.000,0.000,0.000,0,2,0,3,7,255,918,250,753,918
stim,2570,2570,0,337998.829,0.994,0.041,-0.042,0.093,2491,0,183,2279,439,1108,36,820,0,0.000,1,0,0.060,0.003,0.040,-0.040,-0.020,-0.077,-0.089,0.996,-0.002,0.002,0.002,0.000,0.000,0.000,0.000,0,2,0,3,7,255,918,250,758,918
stim,2570,2570,0,338003.829,0.994,0.041,-0.042,0.093,2480,0,189,2276,441,1111,39,823,0,0.000,1,0,0.060,0.003,0.040,-0.040,-0.020,-0.075,-0.089,0.995,-0.002,0.002,-0.004,0.000,0.000,0.000,0.000,0,2,0,3,7,255,918,250,763,918
stim,2590,2590,0,338008.829,0.994,0.041,-0.042,0.093,2487,0,185,2279,436,1114,37,823,0,0.000,1,0,0.092,0.003,0.040,0.020,-0.080,-0.077,-0.089,0.997,-0.002,0.002,-0.004,0.000,0.000,0.000,0.000,0,2,0,3,7,255,918,250,768,918
stim,2590,2590,0,338013.829,0.994,0.041,-0.042,0.093,2476,0,184,2269,419,1109,37,815,0,0.000,1,0,0.069,0.002,0.040,-0.040,0.040,-0.076,-0.089,0.996,0.002,0.000,-0.004,0.000,0.000,0.000,0.000,0,2,0,3,7,255,918,250,773,918
stim,2590,2590,0,338018.829,0.994,0.041,-0.042,0.093,2488,0,184,2283,413,1114,39,823,0,0.000,1,0,0.060,0.002,0.040,0.020,0.040,-0.077,-0.088,0.997,0.000,0.002,0.006,0.000,0.000,0.000,0.000,0,2,0,3,7,255,918,250,778,918
stim,2590,2590,0,338023.829,0.994,0.041,-0.042,0.093,2487,0,195,2280,413,1109,37,816,0,0.000,1,0,0.060,0.004,-0.020,-0.040,0.040,-0.076,-0.089,0.996,0.002,0.004,0.000,0.000,0.000,0.000,0.000,0,2,0,3,7,255,918,250,783,918
stim,2591,2591,0,338028.829,0.994,0.041,-0.042,0.093,2485,0,187,2293,415,1113,37,825,0,0.000,1,0,0.035,0.004,-0.020,0.020,-0.020,-0.078,-0.089,0.995,0.000,0.004,0.000,0.000,0.000,0.000,0.000,0,2,0,3,7,255,918,250,788,918
stim,2591,2591,1,338033.829,0.994,0.041,-0.042,0.093,2477,0,190,2291,421,1123,36,822,0,0.000,1,0,0.049,0.004,-0.020,-0.040,-0.020,-0.076,-0.091,0.996,0.000,0.004,-0.002,0.000,0.000,0.000,0.000,0,2,1,3,7,255,918,250,793,918
stim,2624,2624,1,338038.829,0.994,0.041,-0.042,0.093,2480,0,184,2283,421,1113,40,821,0,0.000,1,0,0.104,0.011,-0.100,0.020,-0.020,-0.078,-0.089,0.997,-0.010,0.004,-0.002,0.000,0.000,0.000,0.000,0,2,1,3,7,255,918,250,798,918
stim,2624,2624,1,338043.829,0.994,0.041,-0.042,0.093,2488,0,187,2283,415,1115,39,821,0,0.000,1,0,0.035,0.011,-0.020,0.020,-0.020,-0.078,-0.089,0.996,-0.010,0.004,0.002,0.000,0.000,0.000,0.000,0,2,1,3,7,255,918,250,803,918
stim,2624,2624,1,338048.830,0.994,0.041,-0.042,0.093,2499,0,185,2285,416,1113,43,825,0,0.000,1,0,0.110,0.011,-0.100,0.020,0.040,-0.076,-0.089,0.996,-0.010,0.004,0.002,0.000,0.000,0.000,0.000,0,2,1,3,7,255,918,250,808,918
stim,2624,2624,1,338053.829,0.994,0.041,-0.042,0.093,2487,0,183,2284,405,1115,37,821,0,0.000,1,0,0.110,0.006,-0.100,-0.040,-0.020,-0.077,-0.089,0.996,-0.006,0.002,0.002,0.000,0.000,0.000,0.000,0,2,1,3,7,255,918,250,813,918
