condition_phase,condition_phase_elapsed_ms,condition_elapsed_ms,is_stimulation_on,t_ms,L_q0,L_q1,L_q2,L_q3,L_heel1,L_mid1,L_fore1,L_heel2,L_fore3,L_mid2,L_fore4,L_fore2,L_cadence,L_speed,L_steps,L_zupt,L_gyroNorm,L_accH,L_gyro_x,L_gyro_y,L_gyro_z,L_acc_x,L_acc_y,L_acc_z,L_nav_ax,L_nav_ay,L_nav_az,L_stepVel,L_stepVelj,L_stepDispRaw,L_stepDispZUPT,L_gaitEvent,L_motorMode,L_motorActive,L_motorAlignment,L_motorRegionMask,L_motorAmplitude,L_motorIntervalMs,L_motorDurationMs,L_motorPhaseMs,L_motorCycleMs
stim,15,15,0,101883.829,0.998,0.058,-0.027,-0.013,199,0,331,991,3820,901,309,763,0,0.000,1,0,1.160,0.021,-0.960,0.460,-0.460,-0.059,-0.122,0.999,-0.014,-0.016,-0.038,0.000,0.000,0.000,0.000,0,0,0,0,7,255,0,250,0,0
stim,15,15,0,101888.829,0.998,0.058,-0.027,-0.013,209,0,335,982,3835,896,309,771,0,0.000,1,0,0.922,0.021,-0.040,-0.760,-0.520,-0.047,-0.108,1.004,-0.014,-0.016,0.042,0.000,0.000,0.000,0.000,0,0,0,0,7,255,0,250,0,0
stim,39,39,0,101893.829,0.998,0.058,-0.027,-0.013,203,0,332,985,3819,905,311,763,0,0.000,1,0,1.816,0.084,1.000,-0.220,1.500,-0.048,-0.101,0.985,0.054,0.064,0.042,0.000,0.000,0.000,0.000,0,0,0,0,7,255,0,250,0,0
stim,39,39,0,101898.829,0.998,0.058,-0.027,-0.013,211,0,337,996,3835,909,308,764,0,0.000,1,0,1.751,0.084,-0.780,1.560,0.160,-0.077,-0.137,0.989,0.054,0.064,-0.022,0.000,0.000,0.000,0.000,0,0,0,0,7,255,0,250,0,0
stim,63,63,0,101903.830,0.998,0.058,-0.027,-0.013,203,0,334,999,3837,896,311,761,0,0.000,1,0,2.973,0.050,-1.020,-1.020,-2.600,-0.056,-0.121,1.018,0.002,-0.050,-0.022,0.000,0.000,0.000,0.000,0,0,0,0,7,255,0,250,0,0
stim,63,63,0,101908.829,0.998,0.058,-0.027,-0.013,205,0,336,987,3819,907,311,761,0,0.000,1,0,2.775,0.050,1.480,-1.260,1.980,-0.031,-0.076,0.980,0.002,-0.050,-0.022,0.000,0.000,0.000,0.000,0,0,0,0,7,255,0,250,0,0
stim,79,79,0,101913.829,0.998,0.058,-0.027,-0.013,211,0,333,996,3827,905,307,766,0,0.000,1,0,2.948,0.050,-0.540,2.780,0.820,-0.079,-0.144,0.982,0.002,-0.050,-0.084,0.000,0.000,0.000,0.000,0,0,0,0,7,255,0,250,0,0
stim,79,79,0,101918.830,0.998,0.058,-0.027,-0.013,213,0,334,995,3823,907,311,765,0,0.000,1,0,3.355,0.039,-0.900,-1.920,-2.600,-0.053,-0.119,1.030,0.036,-0.016,-0.084,0.000,0.000,0.000,0.000,0,0,0,0,7,255,0,250,0,0
stim,79,79,0,101923.829,0.998,0.058,-0.027,-0.013,203,0,331,998,3827,906,312,773,0,0.000,1,0,2.828,0.039,1.420,-0.640,2.360,-0.045,-0.085,0.964,0.036,-0.016,-0.084,0.000,0.000,0.000,0.000,0,0,0,0,7,255,0,250,0,0
stim,79,79,0,101928.829,0.998,0.058,-0.027,-0.013,213,0,337,998,3829,904,309,766,0,0.000,1,0,3.420,0.039,-1.520,2.600,-1.620,-0.067,-0.147,1.003,0.036,-0.016,0.118,0.000,0.000,0.000,0.000,0,0,0,0,7,255,0,250,0,0
stim,79,79,0,101933.829,0.998,0.058,-0.027,-0.013,208,0,337,1001,3838,903,307,762,0,0.000,1,0,3.573,0.251,1.120,-3.260,0.940,-0.048,-0.088,1.009,0.068,0.242,0.096,0.000,0.000,0.000,0.000,0,0,0,0,7,255,0,250,0,0
stim,79,79,0,101938.829,0.998,0.058,-0.027,-0.013,205,0,330,999,3819,913,313,773,0,0.000,1,0,2.878,0.243,-0.840,2.540,-1.060,-0.064,-0.133,0.973,-0.098,-0.222,0.096,0.000,0.000,0.000,0.000,0,0,0,0,7,255,0,250,0,0
stim,79,79,0,101943.829,0.998,0.058,-0.027,-0.013,205,0,333,995,3827,896,309,773,0,0.000,1,0,2.239,0.172,0.740,-1.740,1.200,-0.046,-0.100,1.017,0.068,0.158,0.096,0.000,0.000,0.000,0.000,0,0,0,0,7,255,0,250,0,0
stim,79,79,0,101948.829,0.998,0.058,-0.027,-0.013,205,0,336,999,3833,906,312,763,0,0.000,1,0,2.087,0.193,-0.780,1.060,-1.620,-0.068,-0.128,0.977,-0.098,-0.166,-0.156,0.000,0.000,0.000,0.000,0,0,0,0,7,255,0,250,0,0
stim,79,79,0,101953.829,0.998,0.058,-0.027,-0.013,207,0,332,995,3817,909,311,773,0,0.000,1,0,2.281,0.175,1.040,-0.940,1.800,-0.043,-0.100,1.009,0.090,0.150,0.112,0.000,0.000,0.000,0.000,0,0,0,0,7,255,0,250,0,0
stim,79,79,0,101958.829,0.998,0.058,-0.027,-0.013,214,0,333,1006,3835,904,309,763,0,0.000,1,0,2.602,0.195,-1.260,0.880,-2.100,-0.066,-0.128,0.984,-0.108,-0.162,-0.090,0.000,0.000,0.000,0.000,0,0,0,0,7,255,0,250,0,0
stim,16,16,0,101963.829,0.998,0.058,-0.027,-0.013,211,0,333,997,3816,907,310,763,0,0.000,1,0,3.002,0.167,1.600,-0.940,2.360,-0.046,-0.100,1.003,0.088,0.142,0.056,0.000,0.000,0.000,0.000,0,2,0,2,7,255,1224,200,49,1224
stim,16,16,0,101968.829,0.998,0.058,-0.027,-0.013,216,0,339,1001,3833,907,308,766,0,0.000,1,0,3.216,0.165,-1.820,0.760,-2.540,-0.062,-0.128,0.990,-0.068,-0.150,-0.036,0.000,0.000,0.000,0.000,0,2,0,2,7,255,1224,200,54,1224
stim,31,31,0,101973.829,0.998,0.058,-0.027,-0.013,207,0,328,1007,3821,909,303,763,0,0.000,1,0,3.074,0.099,1.960,-0.640,2.280,-0.050,-0.104,0.996,0.042,0.090,-0.012,0.000,0.000,0.000,0.000,0,2,0,2,7,255,1224,200,59,1224
stim,31,31,0,101978.829,0.998,0.058,-0.027,-0.013,211,0,335,996,3829,905,310,763,0,0.000,1,0,2.505,0.064,-1.880,0.340,-1.620,-0.060,-0.119,1.000,-0.042,-0.048,-0.012,0.000,0.000,0.000,0.000,0,2,0,2,7,255,1224,200,64,1224
stim,31,31,0,101983.829,0.998,0.058,-0.027,-0.013,215,0,339,999,3832,904,308,775,0,0.000,1,0,1.590,0.037,1.480,0.020,0.580,-0.053,-0.116,0.988,0.018,-0.032,-0.012,0.000,0.000,0.000,0.000,0,2,0,2,7,255,1224,200,69,1224
stim,31,31,0,101988.829,0.998,0.058,-0.027,-0.013,210,0,339,1001,3833,909,311,775,0,0.000,1,0,1.190,0.051,-0.900,-0.340,0.700,-0.059,-0.105,1.001,-0.040,-0.032,0.046,0.000,0.000,0.000,0.000,0,2,0,2,7,255,1224,200,74,1224
stim,47,47,0,101993.829,0.998,0.058,-0.027,-0.013,213,0,341,1005,3833,909,311,764,0,0.000,1,0,1.559,0.037,0.140,0.400,-1.500,-0.051,-0.126,0.993,0.018,-0.032,-0.012,0.000,0.000,0.000,0.000,0,2,0,2,7,255,1224,200,79,1224
stim,47,47,0,101998.829,0.998,0.058,-0.027,-0.013,216,0,339,998,3836,909,307,765,0,0.000,1,0,1.551,0.089,0.200,-0.340,1.500,-0.059,-0.101,0.990,-0.040,0.080,-0.012,0.000,0.000,0.000,0.000,0,2,0,2,7,255,1224,200,84,1224
stim,81,81,0,102003.829,0.998,0.058,-0.027,-0.013,213,0,337,1001,3825,907,309,774,0,0.000,1,0,0.869,0.092,-0.420,-0.040,-0.760,-0.054,-0.124,1.004,0.018,-0.090,-0.012,0.000,0.000,0.000,0.000,0,2,0,2,7,255,1224,200,89,1224
stim,81,81,0,102008.829,0.998,0.058,-0.027,-0.013,209,0,339,1001,3817,905,308,768,0,0.000,1,0,0.419,0.055,0.200,0.140,-0.340,-0.055,-0.106,0.987,-0.010,0.054,-0.064,0.000,0.000,0.000,0.000,0,2,0,2,7,255,1224,200,94,1224
stim,82,82,0,102013.829,0.998,0.058,-0.027,-0.013,216,0,340,1005,3825,905,313,771,0,0.000,1,0,0.775,0.016,-0.180,-0.280,0.700,-0.058,-0.115,1.000,-0.010,-0.012,0.042,0.000,0.000,0.000,0.000,0,2,0,2,7,255,1224,200,99,1224
stim,82,82,0,102018.829,0.998,0.058,-0.027,-0.013,211,0,336,1005,3820,905,311,773,0,0.000,1,0,0.768,0.016,0.080,0.080,-0.760,-0.055,-0.121,0.998,-0.010,-0.012,0.032,0.000,0.000,0.000,0.000,0,2,0,2,7,255,1224,200,104,1224
stim,83,83,0,102023.829,0.998,0.058,-0.027,-0.013,210,0,340,997,3831,909,311,765,0,0.000,1,0,0.207,0.013,-0.180,0.020,0.100,-0.054,-0.102,0.991,0.006,-0.012,0.032,0.000,0.000,0.000,0.000,0,2,0,2,7,255,1224,200,109,1224
stim,83,83,0,102028.829,0.998,0.058,-0.027,-0.013,217,0,341,999,3831,913,309,775,0,0.000,1,0,0.204,0.066,-0.120,-0.040,0.160,-0.058,-0.120,0.997,0.006,-0.066,0.024,0.000,0.000,0.000,0.000,0,2,0,2,7,255,1224,200,114,1224
stim,111,111,0,102033.829,0.998,0.058,-0.027,-0.013,209,0,343,1009,3830,905,313,764,0,0.000,1,0,0.462,0.066,-0.040,0.020,-0.460,-0.053,-0.125,0.995,0.006,-0.066,0.006,0.000,0.000,0.000,0.000,0,2,0,2,7,255,1224,200,119,1224
stim,111,111,0,102038.829,0.998,0.058,-0.027,-0.013,218,0,341,997,3834,907,308,765,0,0.000,1,0,0.104,0.066,0.020,0.020,0.100,-0.054,-0.098,0.992,0.000,-0.066,0.006,0.000,0.000,0.000,0.000,0,2,0,2,7,255,1224,200,124,1224
stim,111,111,0,102043.830,0.998,0.058,-0.027,-0.013,217,0,339,1003,3848,906,309,765,0,0.000,1,0,0.224,0.020,0.200,0.020,0.100,-0.059,-0.111,1.000,0.000,0.020,0.006,0.000,0.000,0.000,0.000,0,2,0,2,7,255,1224,200,129,1224
stim,111,111,0,102048.829,0.998,0.058,-0.027,-0.013,207,0,330,991,3816,895,301,759,0,0.000,1,0,0.638,0.020,-0.540,0.020,-0.340,-0.053,-0.133,0.996,0.000,0.020,0.022,0.000,0.000,0.000,0.000,0,2,0,2,7,255,1224,200,134,1224
stim,111,111,0,102053.829,0.998,0.058,-0.027,-0.013,213,0,335,1001,3821,907,313,775,0,0.000,1,0,0.394,0.013,-0.360,0.020,0.160,-0.053,-0.112,0.987,0.012,0.006,0.022,0.000,0.000,0.000,0.000,0,2,0,2,7,255,1224,200,139,1224
stim,111,111,0,102058.829,0.998,0.058,-0.027,-0.013,219,0,341,1001,3835,907,308,767,0,0.000,1,0,0.810,0.013,0.800,0.080,0.100,-0.059,-0.093,0.996,0.012,0.006,-0.020,0.000,0.000,0.000,0.000,0,2,0,2,7,255,1224,200,144,1224
stim,111,111,0,102063.829,0.998,0.058,-0.027,-0.013,214,0,337,1001,3827,909,309,775,0,0.000,1,0,0.368,0.008,0.140,0.020,-0.340,-0.055,-0.121,1.006,0.006,0.006,-0.020,0.000,0.000,0.000,0.000,0,2,0,2,7,255,1224,200,149,1224
stim,111,111,0,102068.829,0.998,0.058,-0.027,-0.013,211,0,341,999,3831,913,303,771,0,0.000,1,0,1.290,0.060,-1.280,0.020,0.160,-0.052,-0.136,0.994,0.006,-0.060,0.004,0.000,0.000,0.000,0.000,0,2,0,2,7,255,1224,200,154,1224
stim,128,128,0,102073.829,0.998,0.058,-0.027,-0.013,214,0,341,1000,3831,913,307,773,0,0.000,1,0,0.490,0.060,-0.280,-0.040,0.400,-0.059,-0.105,0.983,0.006,-0.060,0.004,0.000,0.000,0.000,0.000,0,2,0,2,7,255,1224,200,159,1224
stim,128,128,0,102078.829,0.998,0.058,-0.027,-0.013,210,0,342,1005,3827,909,311,765,0,0.000,1,0,1.510,0.076,1.360,0.140,-0.640,-0.062,-0.093,0.999,-0.044,0.062,0.004,0.000,0.000,0.000,0.000,0,2,0,2,7,255,1224,200,164,1224
stim,128,128,0,102083.829,0.998,0.058,-0.027,-0.013,215,0,339,999,3827,909,308,775,0,0.000,1,0,0.884,0.076,0.320,0.080,-0.820,-0.050,-0.124,1.009,-0.044,0.062,0.016,0.000,0.000,0.000,0.000,0,2,0,2,7,255,1224,200,169,1224
stim,128,128,0,102088.829,0.998,0.058,-0.027,-0.013,211,0,337,1005,3829,913,311,776,0,0.000,1,0,1.631,0.096,-1.440,-0.100,0.760,-0.051,-0.131,0.995,0.046,-0.084,0.016,0.000,0.000,0.000,0.000,0,2,0,2,7,255,1224,200,174,1224
stim,144,144,0,102093.829,0.998,0.058,-0.027,-0.013,213,0,336,1000,3833,909,311,776,0,0.000,1,0,1.241,0.096,-0.780,-0.100,0.960,-0.062,-0.105,0.983,0.046,-0.084,0.008,0.000,0.000,0.000,0.000,0,2,0,2,7,255,1224,200,179,1224
stim,144,144,0,102098.829,0.998,0.058,-0.027,-0.013,216,0,341,999,3832,909,309,765,0,0.000,1,0,1.385,0.102,1.060,0.140,-0.880,-0.065,-0.098,0.992,-0.078,0.066,-0.048,0.000,0.000,0.000,0.000,0,2,0,2,7,255,1224,200,184,1224
stim,180,180,0,102103.830,0.998,0.058,-0.027,-0.013,217,0,339,1009,3840,911,311,772,0,0.000,1,0,1.909,0.102,0.880,0.220,-1.680,-0.048,-0.120,1.005,-0.078,0.066,-0.048,0.000,0.000,0.000,0.000,0,2,0,2,7,255,1224,200,189,1224
stim,180,180,0,102108.829,0.998,0.058,-0.027,-0.013,207,0,331,991,3813,901,301,759,0,0.000,1,0,0.797,0.090,-0.720,-0.040,0.340,-0.042,-0.128,1.000,0.074,-0.052,0.048,0.000,0.000,0.000,0.000,0,2,0,2,7,255,1224,200,194,1224
stim,180,180,0,102113.829,0.998,0.058,-0.027,-0.013,211,0,340,1004,3832,906,311,775,0,0.000,1,0,2.132,0.090,-0.900,-0.220,1.920,-0.058,-0.112,0.990,0.074,-0.052,0.048,0.000,0.000,0.000,0.000,0,2,0,2,7,255,1224,200,199,1224
stim,180,180,0,102118.829,0.998,0.058,-0.027,-0.013,217,0,341,1003,3829,909,309,768,0,0.000,1,0,0.487,0.036,0.140,0.080,0.460,-0.070,-0.103,0.992,-0.036,0.006,-0.036,0.000,0.000,0.000,0.000,0,2,0,2,7,255,1224,200,204,1224
stim,181,181,0,102123.829,0.998,0.058,-0.027,-0.013,217,0,339,1000,3827,913,309,775,0,0.000,1,0,1.889,0.043,0.500,0.280,-1.800,-0.059,-0.111,0.997,-0.038,0.020,-0.036,0.000,0.000,0.000,0.000,0,2,0,2,7,255,1224,200,209,1224
stim,181,181,0,102128.829,0.998,0.058,-0.027,-0.013,215,0,332,1005,3835,906,313,763,0,0.000,1,0,1.394,0.043,0.140,0.140,-1.380,-0.042,-0.122,0.997,-0.038,0.020,0.016,0.000,0.000,0.000,0.000,0,2,0,2,7,255,1224,200,214,1224
stim,213,213,0,102133.829,0.998,0.058,-0.027,-0.013,211,0,342,1005,3832,907,311,775,0,0.000,1,0,1.033,0.112,-0.240,-0.100,1.000,-0.044,-0.117,0.996,0.108,-0.030,0.016,0.000,0.000,0.000,0.000,0,2,0,2,7,255,1224,200,219,1224
stim,213,213,0,102138.830,0.998,0.058,-0.027,-0.013,211,0,343,1005,3828,913,309,773,0,0.000,1,0,1.764,0.112,-0.240,-0.160,1.740,-0.062,-0.110,0.996,0.108,-0.030,0.006,0.000,0.000,0.000,0.000,0,2,0,2,7,255,1224,200,224,1224
stim,213,213,0,102143.829,0.998,0.058,-0.027,-0.013,213,0,335,1000,3831,907,311,777,0,0.000,1,0,0.411,0.070,-0.300,0.020,0.280,-0.069,-0.111,0.996,-0.066,0.022,0.006,0.000,0.000,0.000,0.000,0,2,0,2,7,255,1224,200,229,1224
stim,213,213,0,102148.829,0.998,0.058,-0.027,-0.013,219,0,339,999,3831,908,309,768,0,0.000,1,0,1.189,0.070,-0.040,0.140,-1.180,-0.059,-0.116,0.992,-0.066,0.022,0.006,0.000,0.000,0.000,0.000,0,2,0,2,7,255,1224,200,234,1224
stim,213,213,0,102153.829,0.998,0.058,-0.027,-0.013,218,0,336,1009,3827,911,311,773,0,0.000,1,0,0.969,0.046,0.380,0.140,-0.880,-0.048,-0.116,0.994,-0.040,-0.022,-0.014,0.000,0.000,0.000,0.000,0,2,0,2,7,255,1224,200,239,1224
stim,213,213,0,102158.829,0.998,0.058,-0.027,-0.013,207,0,335,999,3835,905,302,760,0,0.000,1,0,0.514,0.047,0.320,-0.040,0.400,-0.051,-0.114,0.999,0.042,-0.022,-0.014,0.000,0.000,0.000,0.000,0,2,0,2,7,255,1224,200,244,1224
stim,213,213,0,102163.829,0.998,0.058,-0.027,-0.013,211,0,338,1001,3819,910,312,777,0,0.000,1,0,0.927,0.042,-0.420,-0.100,0.820,-0.058,-0.112,1.000,0.042,0.002,0.032,0.000,0.000,0.000,0.000,0,2,0,2,7,255,1224,200,249,1224
stim,213,213,0,102168.829,0.998,0.058,-0.027,-0.013,208,0,334,1001,3805,901,309,763,0,0.000,1,0,0.691,0.024,-0.600,-0.040,0.340,-0.062,-0.115,0.993,-0.024,0.002,0.032,0.000,0.000,0.000,0.000,0,2,0,2,7,255,1224,200,254,1224
stim,223,223,0,102173.829,0.998,0.058,-0.027,-0.013,219,0,341,1003,3819,911,308,767,0,0.000,1,0,0.405,0.035,-0.060,0.020,-0.400,-0.058,-0.114,0.990,-0.032,-0.014,-0.018,0.000,0.000,0.000,0.000,0,2,0,2,7,255,1224,200,259,1224
stim,223,223,0,102178.829,0.998,0.058,-0.027,-0.013,211,0,337,999,3833,903,308,763,0,0.000,1,0,0.681,0.036,0.500,-0.040,-0.460,-0.053,-0.115,0.996,-0.032,-0.016,-0.018,0.000,0.000,0.000,0.000,0,2,0,2,7,255,1224,200,264,1224
stim,223,223,0,102183.829,0.998,0.058,-0.027,-0.013,213,0,339,1000,3821,915,311,777,0,0.000,1,0,0.266,0.024,0.260,-0.040,-0.040,-0.053,-0.113,1.000,0.020,-0.014,0.002,0.000,0.000,0.000,0.000,0,2,0,2,7,255,1224,200,269,1224
stim,245,245,0,102188.829,0.998,0.058,-0.027,-0.013,205,0,339,999,3851,903,304,763,0,0.000,1,0,0.497,0.021,-0.360,-0.040,0.340,-0.054,-0.114,0.997,0.020,-0.006,0.016,0.000,0.000,0.000,0.000,0,2,0,2,7,255,1224,200,274,1224
stim,245,245,0,102193.829,0.998,0.058,-0.027,-0.013,214,0,340,1009,3831,906,313,775,0,0.000,1,0,0.515,0.015,-0.420,-0.100,0.280,-0.058,-0.114,0.992,0.014,-0.006,0.016,0.000,0.000,0.000,0.000,0,2,0,2,7,255,1224,200,279,1224
stim,245,245,0,102198.829,0.998,0.058,-0.027,-0.013,205,0,332,994,3849,903,302,765,0,0.000,1,0,0.045,0.027,0.000,0.020,-0.040,-0.058,-0.115,0.993,-0.026,-0.008,-0.020,0.000,0.000,0.000,0.000,0,2,0,2,7,255,1224,200,284,1224
stim,245,245,0,102203.829,0.998,0.058,-0.027,-0.013,213,0,339,1000,3817,913,310,765,0,0.000,1,0,0.467,0.027,0.320,0.020,-0.340,-0.056,-0.114,0.996,-0.026,-0.008,-0.020,0.000,0.000,0.000,0.000,0,2,0,2,7,255,1224,200,289,1224
stim,290,290,0,102208.829,0.998,0.058,-0.027,-0.013,214,0,334,990,3831,903,307,764,0,0.000,1,0,0.262,0.009,0.140,0.020,-0.220,-0.053,-0.113,0.998,-0.004,-0.008,0.002,0.000,0.000,0.000,0.000,0,2,0,2,7,255,1224,200,294,1224
stim,290,290,0,102213.829,0.998,0.058,-0.027,-0.013,217,0,343,1001,3833,909,307,773,0,0.000,1,0,0.182,0.014,-0.180,0.020,0.020,-0.054,-0.114,0.997,0.014,-0.002,0.010,0.000,0.000,0.000,0.000,0,2,0,2,7,255,1224,200,299,1224
stim,290,290,0,102218.829,0.998,0.058,-0.027,-0.013,207,0,336,999,3835,905,309,765,0,0.000,1,0,0.374,0.015,-0.300,-0.040,0.220,-0.056,-0.113,0.994,0.014,0.006,0.010,0.000,0.000,0.000,0.000,0,2,0,2,7,255,1224,200,304,1224
stim,290,290,0,102223.829,0.998,0.058,-0.027,-0.013,215,0,343,1007,3835,915,313,773,0,0.000,1,0,0.115,0.006,-0.100,-0.040,0.040,-0.058,-0.114,0.993,-0.006,-0.002,-0.014,0.000,0.000,0.000,0.000,0,2,0,2,7,255,1224,200,309,1224
stim,290,290,0,102228.829,0.998,0.058,-0.027,-0.013,216,0,332,992,3837,905,301,764,0,0.000,1,0,0.245,0.016,0.140,0.020,-0.200,-0.057,-0.113,0.994,-0.016,0.004,-0.018,0.000,0.000,0.000,0.000,0,2,0,2,7,255,1224,200,314,1224
stim,290,290,0,102233.829,0.998,0.058,-0.027,-0.013,219,0,341,997,3828,911,304,773,0,0.000,1,0,0.219,0.016,0.080,-0.040,-0.200,-0.055,-0.112,0.997,-0.016,0.004,-0.018,0.000,0.000,0.000,0.000,0,2,0,2,7,255,1224,200,319,1224
stim,303,303,0,102238.829,0.998,0.058,-0.027,-0.013,213,0,339,994,3839,903,304,762,0,0.000,1,0,0.183,0.004,-0.160,-0.040,-0.080,-0.054,-0.113,0.997,0.000,0.004,0.010,0.000,0.000,0.000,0.000,0,2,0,2,7,255,1224,200,324,1224
stim,303,303,0,102243.829,0.998,0.058,-0.027,-0.013,216,0,343,1007,3831,907,308,775,0,0.000,1,0,0.298,0.004,-0.280,0.020,0.100,-0.056,-0.114,0.996,0.000,0.004,0.010,0.000,0.000,0.000,0.000,0,2,0,2,7,255,1224,200,329,1224
stim,303,303,0,102248.829,0.998,0.058,-0.027,-0.013,217,0,341,1000,3825,905,308,777,0,0.000,1,0,0.162,0.006,-0.160,0.020,-0.020,-0.058,-0.113,0.995,-0.004,0.004,0.002,0.000,0.000,0.000,0.000,0,2,0,2,7,255,1224,200,334,1224
stim,303,303,0,102253.829,0.998,0.058,-0.027,-0.013,211,0,339,1003,3825,911,312,777,0,0.000,1,0,0.173,0.014,-0.100,0.020,-0.140,-0.057,-0.113,0.995,-0.014,0.002,-0.002,0.000,0.000,0.000,0.000,0,2,0,2,7,255,1224,200,339,1224
stim,303,303,0,102258.829,0.998,0.058,-0.027,-0.013,217,0,343,1000,3837,905,305,776,0,0.000,1,0,0.205,0.014,-0.040,0.020,-0.200,-0.055,-0.113,0.995,-0.014,0.002,-0.004,0.000,0.000,0.000,0.000,0,2,0,2,7,255,1224,200,344,1224
stim,303,303,0,102263.829,0.998,0.058,-0.027,-0.013,214,0,335,1005,3823,913,310,765,0,0.000,1,0,0.173,0.002,-0.100,0.020,-0.140,-0.055,-0.114,0.996,0.000,0.002,-0.002,0.000,0.000,0.000,0.000,0,2,0,2,7,255,1224,200,349,1224
stim,320,320,0,102268.829,0.998,0.058,-0.027,-0.013,219,0,344,1005,3837,907,307,766,0,0.000,1,0,0.222,0.002,-0.220,0.020,-0.020,-0.055,-0.114,0.996,0.000,-0.002,0.002,0.000,0.000,0.000,0.000,0,2,0,2,7,255,1224,200,354,1224
stim,320,320,0,102273.829,0.998,0.058,-0.027,-0.013,221,0,343,1005,3833,909,309,775,0,0.000,1,0,0.261,0.004,-0.240,0.020,-0.100,-0.056,-0.114,0.994,0.000,-0.004,0.002,0.000,0.000,0.000,0.000,0,2,0,2,7,255,1224,200,359,1224
stim,335,335,0,102278.829,0.998,0.058,-0.027,-0.013,213,0,343,1010,3835,914,311,775,0,0.000,1,0,0.242,0.006,-0.180,0.020,-0.160,-0.056,-0.113,0.995,-0.004,-0.004,-0.008,0.000,0.000,0.000,0.000,0,2,0,2,7,255,1224,200,364,1224
stim,335,335,0,102283.829,0.998,0.058,-0.027,-0.013,219,0,340,1011,3827,908,313,775,0,0.000,1,0,0.242,0.006,-0.180,0.020,-0.160,-0.056,-0.114,0.995,-0.004,-0.004,-0.008,0.000,0.000,0.000,0.000,0,2,0,2,7,255,1224,200,369,1224
stim,335,335,0,102288.829,0.998,0.058,-0.027,-0.013,213,0,339,1005,3823,907,312,779,0,0.000,1,0,0.242,0.009,-0.180,0.020,-0.160,-0.054,-0.114,0.996,-0.004,-0.008,-0.002,0.000,0.000,0.000,0.000,0,2,0,2,7,255,1224,200,374,1224
stim,335,335,0,102293.829,0.998,0.058,-0.027,-0.013,211,0,341,1002,3823,908,310,773,0,0.000,1,0,0.261,0.009,-0.240,0.020,-0.100,-0.056,-0.113,0.996,-0.004,-0.008,0.002,0.000,0.000,0.000,0.000,0,2,0,2,7,255,1224,200,379,1224
stim,351,351,0,102298.829,0.998,0.058,-0.027,-0.013,212,0,342,1003,3828,907,311,777,0,0.000,1,0,0.301,0.006,-0.300,0.020,-0.020,-0.056,-0.114,0.995,-0.004,-0.004,0.002,0.000,0.000,0.000,0.000,0,2,0,2,7,255,1224,200,384,1224
stim,351,351,0,102303.830,0.998,0.058,-0.027,-0.013,217,0,343,1005,3833,911,307,774,0,0.000,1,0,0.272,0.006,-0.240,0.080,-0.100,-0.056,-0.114,0.995,-0.004,-0.004,-0.006,0.000,0.000,0.000,0.000,0,2,0,2,7,255,1224,200,389,1224
stim,383,383,0,102308.829,0.998,0.058,-0.027,-0.013,215,0,340,1003,3828,915,307,775,0,0.000,1,0,0.242,0.006,-0.180,0.020,-0.160,-0.056,-0.114,0.996,-0.004,-0.004,-0.006,0.000,0.000,0.000,0.000,0,2,0,2,7,255,1224,200,394,1224
stim,383,383,0,102313.829,0.998,0.058,-0.027,-0.013,213,0,345,1007,3835,908,307,774,0,0.000,1,0,0.162,0.006,-0.100,0.080,-0.100,-0.055,-0.114,0.996,-0.004,-0.004,0.002,0.000,0.000,0.000,0.000,0,2,0,2,7,255,1224,200,399,1224
stim,383,383,0,102318.829,0.998,0.058,-0.027,-0.013,211,0,336,1003,3822,905,313,779,0,0.000,1,0,0.242,0.004,-0.180,0.020,-0.160,-0.056,-0.113,0.996,-0.004,-0.002,0.002,0.000,0.000,0.000,0.000,0,2,0,2,7,255,1224,200,404,1224
stim,383,383,0,102323.829,0.998,0.058,-0.027,-0.013,217,0,333,1003,3829,909,309,777,0,0.000,1,0,0.207,0.009,-0.180,0.020,-0.100,-0.056,-0.115,0.995,-0.004,-0.008,0.002,0.000,0.000,0.000,0.000,0,2,0,2,7,255,1224,200,409,1224
stim,383,383,0,102328.829,0.998,0.058,-0.027,-0.013,215,0,343,1000,3847,915,309,779,0,0.000,1,0,0.221,0.004,-0.180,0.080,-0.100,-0.056,-0.114,0.995,-0.004,-0.002,-0.002,0.000,0.000,0.000,0.000,0,2,0,2,7,255,1224,200,414,1224
stim,383,383,0,102333.829,0.998,0.058,-0.027,-0.013,215,0,343,1003,3833,919,308,775,0,0.000,1,0,0.143,0.009,-0.100,0.020,-0.100,-0.056,-0.114,0.996,-0.004,-0.008,-0.002,0.000,0.000,0.000,0.000,0,2,0,2,7,255,1224,200,419,1224
stim,399,399,0,102338.829,0.998,0.058,-0.027,-0.013,217,0,340,1001,3827,907,308,777,0,0.000,1,0,0.205,0.004,-0.100,0.080,-0.160,-0.056,-0.114,0.995,-0.004,-0.002,-0.002,0.000,0.000,0.000,0.000,0,2,0,2,7,255,1224,200,424,1224
stim,399,399,0,102343.829,0.998,0.058,-0.027,-0.013,212,0,341,1003,3822,909,312,779,0,0.000,1,0,0.162,0.004,-0.100,0.080,-0.100,-0.055,-0.113,0.995,-0.004,-0.002,-0.002,0.000,0.000,0.000,0.000,0,2,0,2,7,255,1224,200,429,1224
stim,399,399,0,102348.829,0.998,0.058,-0.027,-0.013,211,0,333,991,3819,913,301,761,0,0.000,1,0,0.147,0.004,-0.100,-0.040,-0.100,-0.056,-0.115,0.995,-0.004,-0.002,-0.002,0.000,0.000,0.000,0.000,0,2,0,2,7,255,1224,200,434,1224
stim,399,399,0,102353.829,0.998,0.058,-0.027,-0.013,213,0,343,1004,3822,908,308,764,0,0.000,1,0,0.143,0.002,-0.100,0.020,-0.100,-0.055,-0.114,0.996,0.000,-0.002,0.000,0.000,0.000,0.000,0.000,0,2,0,2,7,255,1224,200,439,1224
stim,417,417,0,102358.829,0.998,0.058,-0.027,-0.013,211,0,341,1005,3834,907,302,773,0,0.000,1,0,0.143,0.011,-0.100,0.020,-0.100,-0.056,-0.114,0.995,-0.008,-0.008,0.000,0.000,0.000,0.000,0.000,0,2,0,2,7,255,1224,200,444,1224
stim,417,417,0,102363.829,0.998,0.058,-0.027,-0.013,214,0,339,1001,3821,910,311,779,0,0.000,1,0,0.143,0.006,-0.100,0.020,-0.100,-0.056,-0.114,0.994,-0.004,-0.004,-0.006,0.000,0.000,0.000,0.000,0,2,0,2,7,255,1224,200,449,1224
stim,417,417,0,102368.829,0.998,0.058,-0.027,-0.013,215,0,345,1007,3839,909,307,775,0,0.000,1,0,0.104,0.009,-0.100,0.020,-0.020,-0.054,-0.115,0.996,-0.004,-0.008,-0.006,0.000,0.000,0.000,0.000,0,2,0,2,7,255,1224,200,454,1224
stim,417,417,0,102373.829,0.998,0.058,-0.027,-0.013,207,0,339,995,3829,904,307,761,0,0.000,1,0,0.049,0.004,-0.040,0.020,-0.020,-0.055,-0.113,0.995,0.000,-0.004,-0.002,0.000,0.000,0.000,0.000,0,2,0,2,7,255,1224,200,459,1224
stim,417,417,0,102378.829,0.998,0.058,-0.027,-0.013,213,0,339,1002,3831,908,313,779,0,0.000,1,0,0.104,0.016,-0.100,0.020,-0.020,-0.056,-0.116,0.995,0.000,-0.016,0.000,0.000,0.000,0.000,0.000,0,2,0,2,7,255,1224,200,464,1224
stim,431,431,0,102383.829,0.998,0.058,-0.027,-0.013,206,0,331,997,3832,907,301,767,0,0.000,1,0,0.060,0.002,-0.040,0.020,0.040,-0.055,-0.114,0.995,0.000,-0.002,-0.002,0.000,0.000,0.000,0.000,0,2,0,2,7,255,1224,200,469,1224
stim,431,431,0,102388.829,0.998,0.058,-0.027,-0.013,211,0,340,1007,3822,917,313,775,0,0.000,1,0,0.049,0.016,-0.040,0.020,-0.020,-0.056,-0.115,0.995,-0.004,-0.016,-0.006,0.000,0.000,0.000,0.000,0,2,0,2,7,255,1224,200,474,1224
stim,447,447,0,102393.829,0.998,0.058,-0.027,-0.013,219,0,344,1006,3833,913,307,775,0,0.000,1,0,0.049,0.013,0.020,0.020,0.040,-0.056,-0.115,0.995,-0.004,-0.012,-0.006,0.000,0.000,0.000,0.000,0,2,0,2,7,255,1224,200,479,1224
stim,447,447,0,102398.829,0.998,0.058,-0.027,-0.013,213,0,339,1000,3821,910,311,774,0,0.000,1,0,0.049,0.014,0.020,0.020,0.040,-0.057,-0.115,0.995,-0.008,-0.012,-0.004,0.000,0.000,0.000,0.000,0,2,0,2,7,255,1224,200,484,1224
stim,480,480,0,102403.829,0.998,0.058,-0.027,-0.013,216,0,339,1007,3831,909,311,777,0,0.000,1,0,0.060,0.014,0.020,-0.040,0.040,-0.056,-0.113,0.996,-0.008,-0.012,0.000,0.000,0.000,0.000,0.000,0,2,0,2,7,255,1224,200,489,1224
stim,480,480,0,102408.829,0.998,0.058,-0.027,-0.013,219,0,341,1006,3835,908,311,777,0,0.000,1,0,0.060,0.011,0.020,-0.040,0.040,-0.055,-0.115,0.996,-0.004,-0.010,0.002,0.000,0.000,0.000,0.000,0,2,0,2,7,255,1224,200,494,1224
stim,480,480,0,102413.829,0.998,0.058,-0.027,-0.013,213,0,339,1001,3827,907,313,781,0,0.000,1,0,0.060,0.004,0.020,-0.040,0.040,-0.057,-0.114,0.995,-0.004,-0.002,0.002,0.000,0.000,0.000,0.000,0,2,0,2,7,255,1224,200,499,1224
stim,480,480,0,102418.829,0.998,0.058,-0.027,-0.013,212,0,343,1005,3829,911,313,776,0,0.000,1,0,0.060,0.007,0.020,-0.040,0.040,-0.056,-0.114,0.996,-0.004,-0.006,0.004,0.000,0.000,0.000,0.000,0,2,0,2,7,255,1224,200,504,1224
stim,480,480,0,102423.829,0.998,0.058,-0.027,-0.013,220,0,343,1001,3839,915,311,775,0,0.000,1,0,0.075,0.007,0.060,-0.040,0.020,-0.056,-0.115,0.995,-0.004,-0.006,-0.002,0.000,0.000,0.000,0.000,0,2,0,2,7,255,1224,200,509,1224
stim,480,480,0,102428.829,0.998,0.058,-0.027,-0.013,214,0,338,1003,3834,908,309,775,0,0.000,1,0,0.066,0.007,0.060,0.020,0.020,-0.056,-0.114,0.996,-0.004,-0.006,0.004,0.000,0.000,0.000,0.000,0,2,0,2,7,255,1224,200,514,1224
stim,495,495,0,102433.829,0.998,0.058,-0.027,-0.013,215,0,345,1001,3835,909,307,776,0,0.000,1,0,0.045,0.004,0.000,-0.040,0.020,-0.056,-0.114,0.996,-0.004,-0.002,0.004,0.000,0.000,0.000,0.000,0,2,0,2,7,255,1224,200,519,1224
stim,495,495,0,102438.829,0.998,0.058,-0.027,-0.013,217,0,344,1003,3829,909,309,776,0,0.000,1,0,0.075,0.002,-0.060,-0.040,0.020,-0.055,-0.113,0.995,-0.002,0.000,0.004,0.000,0.000,0.000,0.000,0,2,0,2,7,255,1224,200,524,1224
stim,496,496,0,102443.829,0.998,0.058,-0.027,-0.013,211,0,339,1004,3827,907,315,777,0,0.000,1,0,0.045,0.002,0.000,-0.040,0.020,-0.056,-0.116,0.996,-0.002,0.000,0.004,0.000,0.000,0.000,0.000,0,2,0,2,7,255,1224,200,529,1224
stim,496,496,0,102448.829,0.998,0.058,-0.027,-0.013,215,0,344,1011,3837,908,313,777,0,0.000,1,0,0.075,0.003,0.060,-0.040,0.020,-0.055,-0.114,0.995,0.002,-0.002,-0.002,0.000,0.000,0.000,0.000,0,2,0,2,7,255,1224,200,534,1224
stim,496,496,0,102453.829,0.998,0.058,-0.027,-0.013,211,0,340,1004,3829,909,315,779,0,0.000,1,0,0.075,0.012,0.060,0.020,-0.040,-0.057,-0.115,0.995,-0.002,-0.012,0.000,0.000,0.000,0.000,0.000,0,2,0,2,7,255,1224,200,539,1224
stim,496,496,0,102458.829,0.998,0.058,-0.027,-0.013,217,0,341,993,3831,908,310,774,0,0.000,1,0,0.066,0.003,0.060,0.020,0.020,-0.056,-0.113,0.996,-0.002,-0.002,0.000,0.000,0.000,0.000,0.000,0,2,0,2,7,255,1224,200,544,1224
stim,512,512,0,102463.829,0.998,0.058,-0.027,-0.013,213,0,343,1002,3839,915,310,779,0,0.000,1,0,0.028,0.012,0.000,0.020,0.020,-0.055,-0.115,0.995,-0.002,-0.012,0.000,0.000,0.000,0.000,0.000,0,2,0,2,7,255,1224,200,549,1224
stim,512,512,0,102468.829,0.998,0.058,-0.027,-0.013,209,0,332,989,3820,905,303,763,0,0.000,1,0,0.082,0.003,0.060,-0.040,-0.040,-0.056,-0.114,0.995,-0.002,-0.002,0.000,0.000,0.000,0.000,0.000,0,2,0,2,7,255,1224,200,554,1224
stim,527,527,0,102473.829,0.998,0.058,-0.027,-0.013,211,0,343,1005,3839,909,313,777,0,0.000,1,0,0.060,0.004,0.020,-0.040,0.040,-0.056,-0.113,0.995,-0.004,-0.002,-0.004,0.000,0.000,0.000,0.000,0,2,0,2,7,255,1224,200,559,1224
stim,527,527,0,102478.829,0.998,0.058,-0.027,-0.013,215,0,339,997,3831,911,309,775,0,0.000,1,0,0.049,0.006,0.020,0.020,0.040,-0.056,-0.113,0.996,-0.004,0.004,-0.004,0.000,0.000,0.000,0.000,0,2,0,2,7,255,1224,200,564,1224
stim,543,543,0,102483.829,0.998,0.058,-0.027,-0.013,213,0,341,1007,3819,909,314,778,0,0.000,1,0,0.060,0.011,-0.040,0.020,0.040,-0.056,-0.113,0.996,-0.008,0.008,0.002,0.000,0.000,0.000,0.000,0,2,0,2,7,255,1224,200,569,1224
stim,543,543,0,102488.829,0.998,0.058,-0.027,-0.013,212,0,340,999,3826,909,313,773,0,0.000,1,0,0.060,0.009,-0.040,0.020,0.040,-0.055,-0.115,0.995,-0.008,0.004,0.002,0.000,0.000,0.000,0.000,0,2,0,2,7,255,1224,200,574,1224
stim,543,543,0,102493.829,0.998,0.058,-0.027,-0.013,218,0,344,1005,3847,909,309,776,0,0.000,1,0,0.035,0.002,0.020,0.020,-0.020,-0.055,-0.114,0.997,0.002,0.000,0.002,0.000,0.000,0.000,0.000,0,2,0,2,7,255,1224,200,579,1224
stim,543,543,0,102498.829,0.998,0.058,-0.027,-0.013,211,0,342,1005,3837,916,313,780,0,0.000,1,0,0.049,0.002,0.020,-0.040,-0.020,-0.056,-0.113,0.995,0.002,0.000,-0.002,0.000,0.000,0.000,0.000,0,2,0,2,7,255,1224,200,584,1224
stim,578,578,0,102503.830,0.998,0.058,-0.027,-0.013,210,0,339,1000,3827,907,313,779,0,0.000,1,0,0.060,0.002,-0.040,-0.040,-0.020,-0.055,-0.114,0.996,0.002,0.000,0.002,0.000,0.000,0.000,0.000,0,2,0,2,7,255,1224,200,589,1224
stim,578,578,0,102508.829,0.998,0.058,-0.027,-0.013,208,0,334,998,3831,904,308,763,0,0.000,1,0,0.060,0.004,-0.040,-0.040,-0.020,-0.055,-0.112,0.996,0.002,0.004,0.000,0.000,0.000,0.000,0.000,0,2,0,2,7,255,1224,200,594,1224
stim,578,578,0,102513.829,0.998,0.058,-0.027,-0.013,217,0,341,1000,3831,910,310,776,0,0.000,1,0,0.110,0.002,-0.100,-0.040,-0.020,-0.055,-0.114,0.996,0.002,0.000,0.002,0.000,0.000,0.000,0.000,0,2,0,2,7,255,1224,200,599,1224
stim,579,579,0,102518.829,0.998,0.058,-0.027,-0.013,204,0,333,992,3845,905,308,771,0,0.000,1,0,0.060,0.012,-0.040,-0.040,-0.020,-0.056,-0.112,0.995,0.002,0.012,0.000,0.000,0.000,0.000,0.000,0,2,0,2,7,255,1224,200,604,1224
stim,579,579,0,102523.829,0.998,0.058,-0.027,-0.013,212,0,341,1002,3838,911,316,779,0,0.000,1,0,0.128,0.003,-0.120,-0.040,-0.020,-0.055,-0.114,0.995,0.002,-0.002,-0.002,0.000,0.000,0.000,0.000,0,2,0,2,7,255,1224,200,609,1224
stim,580,580,0,102528.829,0.998,0.058,-0.027,-0.013,213,0,343,989,3852,905,302,773,0,0.000,1,0,0.157,0.003,-0.120,0.020,-0.100,-0.056,-0.114,0.996,-0.002,-0.002,-0.002,0.000,0.000,0.000,0.000,0,2,0,2,7,255,1224,200,614,1224
stim,580,580,0,102533.829,0.998,0.058,-0.027,-0.013,219,0,337,988,3826,909,311,776,0,0.000,1,0,0.110,0.003,-0.040,0.020,-0.100,-0.054,-0.113,0.996,0.002,-0.002,0.002,0.000,0.000,0.000,0.000,0,2,0,2,7,255,1224,200,619,1224
stim,611,611,0,102538.829,0.998,0.058,-0.027,-0.013,205,0,334,992,3829,907,311,773,0,0.000,1,0,0.157,0.006,-0.120,0.020,-0.100,-0.056,-0.114,0.995,-0.002,-0.006,0.002,0.000,0.000,0.000,0.000,0,2,0,2,7,255,1224,200,624,1224
stim,611,611,0,102543.829,0.998,0.058,-0.027,-0.013,212,0,345,1005,3839,917,311,780,0,0.000,1,0,0.242,0.004,-0.180,0.020,-0.160,-0.055,-0.113,0.995,0.002,0.004,-0.002,0.000,0.000,0.000,0.000,0,2,0,2,7,255,1224,200,629,1224
stim,611,611,0,102548.829,0.998,0.058,-0.027,-0.013,209,0,342,996,3837,909,306,764,0,0.000,1,0,0.166,0.002,-0.040,0.020,-0.160,-0.055,-0.114,0.996,0.002,0.000,-0.002,0.000,0.000,0.000,0.000,0,2,0,2,7,255,1224,200,634,1224
stim,611,611,0,102553.829,0.998,0.058,-0.027,-0.013,215,0,343,1000,3832,912,309,779,0,0.000,1,0,0.157,0.002,-0.120,0.020,-0.100,-0.056,-0.114,0.996,0.002,0.000,0.002,0.000,0.000,0.000,0.000,0,2,0,2,7,255,1224,200,639,1224
stim,611,611,0,102558.829,0.998,0.058,-0.027,-0.013,213,0,342,992,3840,913,309,765,0,0.000,1,0,0.242,0.003,-0.180,0.020,-0.160,-0.056,-0.114,0.995,-0.002,-0.002,0.002,0.000,0.000,0.000,0.000,0,2,0,2,7,255,1224,200,644,1224
stim,611,611,0,102563.829,0.998,0.058,-0.027,-0.013,217,0,339,985,3831,910,315,785,0,0.000,1,0,0.221,0.003,-0.180,0.080,-0.100,-0.056,-0.114,0.996,-0.002,-0.002,0.002,0.000,0.000,0.000,0.000,0,2,0,2,7,255,1224,200,649,1224
stim,624,624,0,102568.830,0.998,0.058,-0.027,-0.013,219,0,345,997,3830,912,315,777,0,0.000,1,0,0.272,0.003,-0.240,0.080,-0.100,-0.055,-0.114,0.995,-0.002,-0.002,-0.002,0.000,0.000,0.000,0.000,0,2,0,2,7,255,1224,200,654,1224
stim,624,624,0,102573.829,0.998,0.058,-0.027,-0.013,213,0,345,1001,3833,911,309,779,0,0.000,1,0,0.221,0.003,-0.180,0.080,-0.100,-0.056,-0.114,0.996,-0.002,-0.002,0.008,0.000,0.000,0.000,0.000,0,2,0,2,7,255,1224,200,659,1224
stim,624,624,0,102578.829,0.998,0.058,-0.027,-0.013,214,0,345,1003,3835,915,309,774,0,0.000,1,0,0.221,0.006,-0.180,0.080,-0.100,-0.057,-0.114,0.995,-0.002,-0.006,-0.002,0.000,0.000,0.000,0.000,0,2,0,2,7,255,1224,200,664,1224
stim,624,624,0,102583.829,0.998,0.058,-0.027,-0.013,214,0,345,1007,3840,916,311,777,0,0.000,1,0,0.261,0.013,-0.240,0.020,-0.100,-0.057,-0.115,0.996,-0.012,-0.006,0.004,0.000,0.000,0.000,0.000,0,2,0,2,7,255,1224,200,669,1224
stim,651,651,0,102588.829,0.998,0.058,-0.027,-0.013,215,0,343,1009,3836,915,311,777,0,0.000,1,0,0.349,0.013,-0.300,0.080,-0.160,-0.057,-0.113,0.995,-0.012,-0.006,-0.002,0.000,0.000,0.000,0.000,0,2,0,2,7,255,1224,200,674,1224
stim,651,651,0,102593.829,0.998,0.058,-0.027,-0.013,215,0,341,1000,3826,917,311,779,0,0.000,1,0,0.285,0.013,-0.180,0.020,-0.220,-0.056,-0.114,0.995,-0.012,-0.006,-0.002,0.000,0.000,0.000,0.000,0,2,0,2,7,255,1224,200,679,1224
stim,651,651,0,102598.829,0.998,0.058,-0.027,-0.013,215,0,339,1000,3823,911,314,781,0,0.000,1,0,0.295,0.010,-0.180,0.080,-0.220,-0.055,-0.114,0.995,-0.008,-0.006,-0.002,0.000,0.000,0.000,0.000,0,2,0,2,7,255,1224,200,684,1224
stim,651,651,0,102603.829,0.998,0.058,-0.027,-0.013,211,0,342,1002,3829,918,317,785,0,0.000,1,0,0.242,0.010,-0.180,0.020,-0.160,-0.056,-0.113,0.995,-0.008,-0.006,-0.002,0.000,0.000,0.000,0.000,0,2,0,2,7,255,1224,200,689,1224
stim,674,674,0,102608.829,0.998,0.058,-0.027,-0.013,211,0,344,1003,3836,908,313,779,0,0.000,1,0,0.254,0.008,-0.180,0.080,-0.160,-0.056,-0.115,0.996,-0.006,-0.006,-0.002,0.000,0.000,0.000,0.000,0,2,0,2,7,255,1224,200,694,1224
stim,674,674,0,102613.829,0.998,0.058,-0.027,-0.013,211,0,347,1003,3835,912,315,779,0,0.000,1,0,0.285,0.008,-0.180,0.020,-0.220,-0.056,-0.114,0.995,-0.008,-0.002,-0.002,0.000,0.000,0.000,0.000,0,2,0,2,7,255,1224,200,699,1224
stim,675,675,0,102618.829,0.998,0.058,-0.027,-0.013,213,0,343,1000,3838,917,311,781,0,0.000,1,0,0.251,0.013,-0.120,0.020,-0.220,-0.057,-0.115,0.995,-0.008,-0.010,0.000,0.000,0.000,0.000,0.000,0,2,0,2,7,255,1224,200,704,1224
stim,675,675,0,102623.829,0.998,0.058,-0.027,-0.013,211,0,342,1000,3825,915,313,775,0,0.000,1,0,0.285,0.010,-0.180,0.020,-0.220,-0.056,-0.114,0.996,-0.008,-0.006,0.000,0.000,0.000,0.000,0.000,0,2,0,2,7,255,1224,200,709,1224
stim,676,676,0,102628.829,0.998,0.058,-0.027,-0.013,211,0,341,1003,3828,919,313,781,0,0.000,1,0,0.295,0.006,-0.180,0.080,-0.220,-0.055,-0.114,0.996,-0.002,-0.006,0.004,0.000,0.000,0.000,0.000,0,2,0,2,7,255,1224,200,714,1224
stim,676,676,0,102633.829,0.998,0.058,-0.027,-0.013,212,0,346,1003,3826,915,309,779,0,0.000,1,0,0.289,0.010,-0.240,0.020,-0.160,-0.055,-0.114,0.995,0.008,-0.006,0.004,0.000,0.000,0.000,0.000,0,2,0,2,7,255,1224,200,719,1224
stim,710,710,0,102638.830,0.998,0.058,-0.027,-0.013,213,0,343,1003,3830,912,313,777,0,0.000,1,0,0.242,0.010,-0.180,0.020,-0.160,-0.056,-0.115,0.995,0.008,-0.006,-0.002,0.000,0.000,0.000,0.000,0,2,0,2,7,255,1224,200,724,1224
stim,710,710,0,102643.829,0.998,0.058,-0.027,-0.013,215,0,345,999,3833,917,309,781,0,0.000,1,0,0.207,0.006,-0.180,0.020,-0.100,-0.056,-0.113,0.994,-0.002,-0.006,-0.006,0.000,0.000,0.000,0.000,0,2,0,2,7,255,1224,200,729,1224
stim,710,710,0,102648.829,0.998,0.058,-0.027,-0.013,210,0,335,989,3827,920,303,765,0,0.000,1,0,0.289,0.010,-0.240,0.020,-0.160,-0.055,-0.115,0.995,-0.002,-0.010,-0.006,0.000,0.000,0.000,0.000,0,2,0,2,7,255,1224,200,734,1224
stim,710,710,0,102653.829,0.998,0.058,-0.027,-0.013,213,0,343,1003,3833,912,308,766,0,0.000,1,0,0.221,0.004,-0.180,0.080,-0.100,-0.056,-0.114,0.996,-0.002,-0.004,-0.006,0.000,0.000,0.000,0.000,0,2,0,2,7,255,1224,200,739,1224
stim,712,712,0,102658.829,0.998,0.058,-0.027,-0.013,213,0,339,1003,3823,909,315,777,0,0.000,1,0,0.185,0.006,-0.180,0.020,-0.040,-0.055,-0.114,0.994,0.002,-0.006,-0.006,0.000,0.000,0.000,0.000,0,2,0,2,7,255,1224,200,744,1224
stim,712,712,0,102663.829,0.998,0.058,-0.027,-0.013,209,0,341,989,3819,917,316,777,0,0.000,1,0,0.221,0.004,-0.180,0.080,-0.100,-0.055,-0.114,0.994,0.002,-0.004,-0.012,0.000,0.000,0.000,0.000,0,2,0,2,7,255,1224,200,749,1224
stim,712,712,0,102668.829,0.998,0.058,-0.027,-0.013,217,0,347,1007,3836,915,309,779,0,0.000,1,0,0.201,0.006,-0.180,0.080,-0.040,-0.057,-0.115,0.995,0.002,-0.006,-0.012,0.000,0.000,0.000,0.000,0,2,0,2,7,255,1224,200,754,1224
stim,712,712,0,102673.829,0.998,0.058,-0.027,-0.013,211,0,345,1003,3835,918,309,783,0,0.000,1,0,0.130,0.008,-0.100,0.020,-0.080,-0.056,-0.114,0.995,-0.006,-0.006,0.000,0.000,0.000,0.000,0.000,0,2,0,2,7,255,1224,200,759,1224
stim,735,735,0,102678.829,0.998,0.058,-0.027,-0.013,219,0,345,1005,3835,916,311,777,0,0.000,1,0,0.130,0.016,-0.100,0.020,-0.080,-0.057,-0.115,0.995,-0.012,-0.010,0.000,0.000,0.000,0.000,0.000,0,2,0,2,7,255,1224,200,764,1224
stim,735,735,0,102683.829,0.998,0.058,-0.027,-0.013,211,0,341,1000,3832,913,315,783,0,0.000,1,0,0.060,0.013,-0.040,-0.040,-0.020,-0.057,-0.114,0.995,-0.012,-0.006,0.000,0.000,0.000,0.000,0.000,0,2,0,2,7,255,1224,200,769,1224
stim,735,735,0,102688.829,0.998,0.058,-0.027,-0.013,216,0,344,1007,3823,911,312,779,0,0.000,1,0,0.170,0.013,-0.040,-0.040,-0.160,-0.056,-0.114,0.994,-0.012,-0.006,-0.002,0.000,0.000,0.000,0.000,0,2,0,2,7,255,1224,200,774,1224
stim,735,735,0,102693.829,0.998,0.058,-0.027,-0.013,218,0,343,999,3827,915,308,780,0,0.000,1,0,0.170,0.002,-0.040,-0.040,-0.160,-0.055,-0.114,0.995,-0.002,0.000,-0.002,0.000,0.000,0.000,0.000,0,2,0,2,7,255,1224,200,779,1224
stim,751,751,0,102698.829,0.998,0.058,-0.027,-0.013,211,0,341,1006,3827,910,315,785,0,0.000,1,0,0.098,0.002,-0.040,-0.040,-0.080,-0.056,-0.114,0.995,-0.002,0.000,-0.002,0.000,0.000,0.000,0.000,0,2,0,2,7,255,1224,200,784,1224
stim,751,751,0,102703.829,0.998,0.058,-0.027,-0.013,213,0,344,1005,3836,910,311,779,0,0.000,1,0,0.085,0.006,0.020,0.020,-0.080,-0.056,-0.115,0.995,-0.006,0.000,-0.002,0.000,0.000,0.000,0.000,0,2,0,2,7,255,1224,200,789,1224
stim,783,783,0,102708.829,0.998,0.058,-0.027,-0.013,215,0,340,1000,3827,917,315,786,0,0.000,1,0,0.049,0.012,-0.040,0.020,-0.020,-0.055,-0.115,0.995,-0.006,-0.010,0.000,0.000,0.000,0.000,0.000,0,2,0,2,7,255,1224,200,794,1224
stim,783,783,0,102713.829,0.998,0.058,-0.027,-0.013,214,0,341,1003,3836,909,309,776,0,0.000,1,0,0.035,0.012,0.020,0.020,-0.020,-0.057,-0.114,0.995,-0.006,-0.010,0.000,0.000,0.000,0.000,0.000,0,2,0,2,7,255,1224,200,799,1224
stim,783,783,0,102718.830,0.998,0.058,-0.027,-0.013,219,0,345,1001,3837,909,309,781,0,0.000,1,0,0.085,0.006,0.020,0.020,-0.080,-0.055,-0.113,0.996,0.004,-0.004,0.000,0.000,0.000,0.000,0.000,0,2,0,2,7,255,1224,200,804,1224
stim,783,783,0,102723.829,0.998,0.058,-0.027,-0.013,217,0,341,999,3819,917,312,783,0,0.000,1,0,0.115,0.006,-0.040,-0.040,-0.100,-0.055,-0.115,0.996,0.004,-0.004,0.002,0.000,0.000,0.000,0.000,0,2,0,2,7,255,1224,200,809,1224
stim,783,783,0,102728.829,0.998,0.058,-0.027,-0.013,211,0,342,1003,3829,912,311,781,0,0.000,1,0,0.049,0.006,0.020,-0.040,-0.020,-0.055,-0.113,0.995,0.004,0.004,0.002,0.000,0.000,0.000,0.000,0,2,0,2,7,255,1224,200,814,1224
stim,783,783,0,102733.829,0.998,0.058,-0.027,-0.013,218,0,342,1005,3835,912,313,780,0,0.000,1,0,0.110,0.008,-0.040,0.020,-0.100,-0.056,-0.115,0.996,0.002,-0.008,0.004,0.000,0.000,0.000,0.000,0,2,0,2,7,255,1224,200,819,1224
stim,783,783,0,102738.829,0.998,0.058,-0.027,-0.013,213,0,345,1002,3827,909,311,783,0,0.000,1,0,0.060,0.004,-0.040,-0.040,-0.020,-0.055,-0.113,0.996,0.002,0.004,0.002,0.000,0.000,0.000,0.000,0,2,0,2,7,255,1224,200,824,1224
stim,799,799,0,102743.829,0.998,0.058,-0.027,-0.013,211,0,337,997,3836,911,311,775,0,0.000,1,0,0.035,0.004,0.020,0.020,-0.020,-0.055,-0.113,0.995,0.002,0.004,0.002,0.000,0.000,0.000,0.000,0,2,0,2,7,255,1224,200,829,1224
stim,799,799,0,102748.829,0.998,0.058,-0.027,-0.013,211,0,344,1009,3834,913,313,779,0,0.000,1,0,0.035,0.004,0.020,0.020,-0.020,-0.056,-0.115,0.994,0.002,0.004,-0.002,0.000,0.000,0.000,0.000,0,2,0,2,7,255,1224,200,834,1224
stim,799,799,0,102753.829,0.998,0.058,-0.027,-0.013,207,0,341,997,3835,904,303,767,0,0.000,1,0,0.049,0.002,0.020,0.020,0.040,-0.056,-0.114,0.995,-0.002,0.000,-0.002,0.000,0.000,0.000,0.000,0,2,0,2,7,255,1224,200,839,1224
stim,815,815,0,102758.829,0.998,0.058,-0.027,-0.013,211,0,339,997,3827,911,301,776,0,0.000,1,0,0.150,0.004,-0.120,0.080,0.040,-0.055,-0.114,0.996,-0.002,-0.004,-0.002,0.000,0.000,0.000,0.000,0,2,0,2,7,255,1224,200,844,1224
stim,815,815,0,102763.829,0.998,0.058,-0.027,-0.013,215,0,341,994,3850,907,308,779,0,0.000,1,0,0.069,0.002,-0.040,-0.040,0.040,-0.056,-0.114,0.995,-0.002,0.000,-0.002,0.000,0.000,0.000,0.000,0,2,0,2,7,255,1224,200,849,1224
stim,815,815,0,102768.829,0.998,0.058,-0.027,-0.013,213,0,345,1001,3827,909,313,779,0,0.000,1,0,0.060,0.004,-0.040,0.020,0.040,-0.056,-0.115,0.996,-0.002,-0.004,0.004,0.000,0.000,0.000,0.000,0,2,0,2,7,255,1224,200,854,1224
stim,815,815,0,102773.829,0.998,0.058,-0.027,-0.013,207,0,334,995,3833,913,305,779,0,0.000,1,0,0.104,0.002,-0.100,0.020,-0.020,-0.056,-0.113,0.995,-0.002,0.000,-0.002,0.000,0.000,0.000,0.000,0,2,0,2,7,255,1224,200,859,1224
stim,815,815,0,102778.829,0.998,0.058,-0.027,-0.013,219,0,343,1005,3832,918,311,780,0,0.000,1,0,0.104,0.010,-0.100,0.020,-0.020,-0.057,-0.115,0.996,-0.006,-0.008,0.004,0.000,0.000,0.000,0.000,0,2,0,2,7,255,1224,200,864,1224
stim,831,831,0,102783.829,0.998,0.058,-0.027,-0.013,209,0,343,999,3837,905,304,776,0,0.000,1,0,0.049,0.006,-0.040,0.020,-0.020,-0.056,-0.114,0.994,-0.006,0.000,-0.002,0.000,0.000,0.000,0.000,0,2,0,2,7,255,1224,200,869,1224
stim,831,831,0,102788.829,0.998,0.058,-0.027,-0.013,213,0,342,1003,3835,910,313,785,0,0.000,1,0,0.049,0.010,-0.040,0.020,-0.020,-0.056,-0.115,0.995,-0.002,-0.010,0.000,0.000,0.000,0.000,0.000,0,2,0,2,7,255,1224,200,874,1224
stim,831,831,0,102793.829,0.998,0.058,-0.027,-0.013,205,0,333,992,3845,911,311,767,0,0.000,1,0,0.092,0.002,-0.040,0.080,-0.020,-0.056,-0.114,0.996,-0.002,0.000,0.000,0.000,0.000,0.000,0.000,0,2,0,2,7,255,1224,200,879,1224
stim,831,831,0,102798.829,0.998,0.058,-0.027,-0.013,215,0,345,1009,3827,912,312,780,0,0.000,1,0,0.092,0.002,-0.040,0.080,-0.020,-0.056,-0.112,0.995,-0.002,0.000,0.000,0.000,0.000,0.000,0.000,0,2,0,2,7,255,1224,200,884,1224
stim,847,847,0,102803.829,0.998,0.058,-0.027,-0.013,211,0,336,999,3849,905,304,777,0,0.000,1,0,0.092,0.002,-0.040,0.080,-0.020,-0.054,-0.114,0.996,-0.002,0.000,0.002,0.000,0.000,0.000,0.000,0,2,0,2,7,255,1224,200,889,1224
stim,847,847,0,102808.829,0.998,0.058,-0.027,-0.013,217,0,345,1003,3847,912,310,781,0,0.000,1,0,0.035,0.009,0.020,0.020,-0.020,-0.055,-0.114,0.995,0.008,-0.004,-0.002,0.000,0.000,0.000,0.000,0,2,0,2,7,255,1224,200,894,1224
stim,880,880,0,102813.829,0.998,0.058,-0.027,-0.013,208,0,341,993,3845,910,309,777,0,0.000,1,0,0.098,0.009,-0.040,0.080,0.040,-0.056,-0.115,0.995,0.008,-0.004,-0.002,0.000,0.000,0.000,0.000,0,2,0,2,7,255,1224,200,899,1224
stim,880,880,0,102818.830,0.998,0.058,-0.027,-0.013,216,0,341,999,3835,915,314,787,0,0.000,1,0,0.098,0.007,-0.040,0.080,0.040,-0.057,-0.113,0.996,-0.006,-0.004,-0.002,0.000,0.000,0.000,0.000,0,2,0,2,7,255,1224,200,904,1224
stim,881,881,0,102823.829,0.998,0.058,-0.027,-0.013,205,0,333,999,3827,913,309,775,0,0.000,1,0,0.060,0.006,-0.040,0.020,0.040,-0.055,-0.114,0.995,-0.006,0.000,-0.002,0.000,0.000,0.000,0.000,0,2,0,2,7,255,1224,200,909,1224
stim,881,881,0,102828.829,0.998,0.058,-0.027,-0.013,219,0,347,1007,3835,910,310,781,0,0.000,1,0,0.092,0.006,0.020,0.080,0.040,-0.056,-0.114,0.995,-0.006,0.000,-0.002,0.000,0.000,0.000,0.000,0,2,0,2,7,255,1224,200,914,1224
stim,881,881,0,102833.829,0.998,0.058,-0.027,-0.013,205,0,339,998,3837,903,304,779,0,0.000,1,0,0.092,0.006,-0.040,0.080,-0.020,-0.056,-0.114,0.995,-0.006,0.000,-0.002,0.000,0.000,0.000,0.000,0,2,0,2,7,255,1224,200,919,1224
stim,881,881,0,102838.829,0.998,0.058,-0.027,-0.013,219,0,345,1003,3832,917,309,782,0,0.000,1,0,0.123,0.006,-0.120,0.020,-0.020,-0.056,-0.113,0.995,-0.006,0.000,-0.006,0.000,0.000,0.000,0.000,0,2,0,2,7,255,1224,200,924,1224
stim,895,895,0,102843.829,0.998,0.058,-0.027,-0.013,205,0,341,995,3847,907,310,773,0,0.000,1,0,0.035,0.004,0.020,0.020,-0.020,-0.055,-0.113,0.996,-0.002,0.004,-0.002,0.000,0.000,0.000,0.000,0,2,0,2,7,255,1224,200,929,1224
stim,895,895,0,102848.829,0.998,0.058,-0.027,-0.013,211,0,344,1003,3833,912,312,783,0,0.000,1,0,0.110,0.004,-0.040,0.020,-0.100,-0.056,-0.115,0.996,-0.002,0.004,0.004,0.000,0.000,0.000,0.000,0,2,0,2,7,255,1224,200,934,1224
stim,895,895,0,102853.829,0.998,0.058,-0.027,-0.013,212,0,341,1004,3821,907,309,787,0,0.000,1,0,0.110,0.002,-0.040,0.020,-0.100,-0.055,-0.114,0.994,0.002,0.000,0.004,0.000,0.000,0.000,0.000,0,2,0,2,7,255,1224,200,939,1224
stim,895,895,0,102858.829,0.998,0.058,-0.027,-0.013,211,0,341,998,3833,915,315,776,0,0.000,1,0,0.115,0.007,-0.040,-0.040,-0.100,-0.057,-0.114,0.996,-0.006,-0.004,0.004,0.000,0.000,0.000,0.000,0,2,0,2,7,255,1224,200,944,1224
stim,911,911,0,102863.829,0.998,0.058,-0.027,-0.013,215,0,343,1001,3829,910,311,782,0,0.000,1,0,0.115,0.006,-0.040,-0.040,-0.100,-0.056,-0.113,0.995,-0.006,0.000,-0.006,0.000,0.000,0.000,0.000,0,2,0,2,7,255,1224,200,949,1224
stim,911,911,0,102868.829,0.998,0.058,-0.027,-0.013,219,0,347,1005,3837,916,311,781,0,0.000,1,0,0.157,0.006,-0.120,0.020,-0.100,-0.056,-0.114,0.995,-0.006,0.000,-0.002,0.000,0.000,0.000,0.000,0,2,0,2,7,255,1224,200,954,1224
stim,928,928,0,102873.829,0.998,0.058,-0.027,-0.013,219,0,347,1007,3837,919,309,780,0,0.000,1,0,0.104,0.002,0.020,0.020,-0.100,-0.056,-0.114,0.995,-0.002,0.000,-0.002,0.000,0.000,0.000,0.000,0,2,0,2,7,255,1224,200,959,1224
stim,928,928,0,102878.829,0.998,0.058,-0.027,-0.013,213,0,343,1003,3830,914,313,780,0,0.000,1,0,0.123,0.002,-0.120,0.020,-0.020,-0.055,-0.114,0.994,-0.002,0.000,-0.002,0.000,0.000,0.000,0.000,0,2,0,2,7,255,1224,200,964,1224
stim,947,947,0,102883.829,0.998,0.058,-0.027,-0.013,213,0,346,1004,3833,911,313,787,0,0.000,1,0,0.049,0.004,-0.040,0.020,-0.020,-0.056,-0.114,0.995,-0.002,-0.004,-0.006,0.000,0.000,0.000,0.000,0,2,0,2,7,255,1224,200,969,1224
stim,947,947,0,102888.829,0.998,0.058,-0.027,-0.013,211,0,342,1007,3821,917,313,785,0,0.000,1,0,0.110,0.004,-0.040,0.020,-0.100,-0.056,-0.114,0.995,-0.002,-0.004,-0.006,0.000,0.000,0.000,0.000,0,2,0,2,7,255,1224,200,974,1224
stim,947,947,0,102893.829,0.998,0.058,-0.027,-0.013,215,0,345,1007,3835,918,309,778,0,0.000,1,0,0.049,0.006,-0.040,0.020,-0.020,-0.056,-0.115,0.995,-0.002,-0.006,0.000,0.000,0.000,0.000,0.000,0,2,0,2,7,255,1224,200,979,1224
stim,947,947,0,102898.829,0.998,0.058,-0.027,-0.013,212,0,346,1003,3837,917,310,785,0,0.000,1,0,0.049,0.010,-0.040,0.020,-0.020,-0.055,-0.115,0.995,-0.002,-0.010,0.000,0.000,0.000,0.000,0.000,0,2,0,2,7,255,1224,200,984,1224
stim,947,947,0,102903.830,0.998,0.058,-0.027,-0.013,216,0,343,1001,3819,917,310,785,0,0.000,1,0,0.049,0.011,-0.040,0.020,-0.020,-0.055,-0.114,0.995,0.004,-0.010,-0.002,0.000,0.000,0.000,0.000,0,2,0,2,7,255,1224,200,989,1224
stim,947,947,0,102908.829,0.998,0.058,-0.027,-0.013,209,0,345,999,3831,913,310,787,0,0.000,1,0,0.060,0.006,-0.040,-0.040,-0.020,-0.056,-0.114,0.995,0.004,-0.004,-0.006,0.000,0.000,0.000,0.000,0,2,0,2,7,255,1224,200,994,1224
stim,978,978,0,102913.829,0.998,0.058,-0.027,-0.013,213,0,345,1011,3837,911,309,781,0,0.000,1,0,0.060,0.006,0.020,-0.040,0.040,-0.056,-0.114,0.995,-0.006,0.000,-0.006,0.000,0.000,0.000,0.000,0,2,0,2,7,255,1224,200,999,1224
stim,978,978,0,102918.829,0.998,0.058,-0.027,-0.013,207,0,343,1005,3831,911,313,787,0,0.000,1,0,0.049,0.007,-0.040,0.020,-0.020,-0.056,-0.114,0.996,-0.006,-0.004,-0.006,0.000,0.000,0.000,0.000,0,2,0,2,7,255,1224,200,1004,1224
stim,979,979,0,102923.829,0.998,0.058,-0.027,-0.013,211,0,343,1001,3830,911,313,785,0,0.000,1,0,0.066,0.000,-0.060,0.020,0.020,-0.056,-0.114,0.996,0.000,0.000,0.004,0.000,0.000,0.000,0.000,0,2,0,2,7,255,1224,200,1009,1224
stim,979,979,0,102928.829,0.998,0.058,-0.027,-0.013,215,0,341,1003,3823,917,315,787,0,0.000,1,0,0.035,0.004,0.020,0.020,0.020,-0.056,-0.115,0.995,0.000,-0.004,0.004,0.000,0.000,0.000,0.000,0,2,0,2,7,255,1224,200,1014,1224
stim,980,980,0,102933.829,0.998,0.058,-0.027,-0.013,219,0,345,1005,3835,917,309,781,0,0.000,1,0,0.082,0.003,-0.060,-0.040,-0.040,-0.056,-0.114,0.996,-0.002,0.002,0.004,0.000,0.000,0.000,0.000,0,2,0,2,7,255,1224,200,1019,1224
stim,980,980,1,102938.830,0.998,0.058,-0.027,-0.013,217,0,341,997,3829,912,313,776,0,0.000,1,0,0.060,0.004,0.020,-0.040,-0.040,-0.056,-0.114,0.996,-0.002,-0.004,0.004,0.000,0.000,0.000,0.000,0,2,1,2,7,255,1224,200,1024,1224
stim,992,992,1,102943.829,0.998,0.058,-0.027,-0.013,215,0,345,1002,3837,915,311,786,0,0.000,1,0,0.092,0.002,0.080,-0.040,0.020,-0.056,-0.114,0.995,-0.002,0.000,0.004,0.000,0.000,0.000,0.000,0,2,1,2,7,255,1224,200,1029,1224
stim,992,992,1,102948.829,0.998,0.058,-0.027,-0.013,205,0,335,994,3803,905,303,772,0,0.000,1,0,0.060,0.002,0.020,-0.040,-0.040,-0.057,-0.114,0.995,-0.002,0.000,0.000,0.000,0.000,0.000,0.000,0,2,1,2,7,255,1224,200,1034,1224
stim,1007,1007,1,102953.829,0.998,0.058,-0.027,-0.013,210,0,341,999,3836,908,312,774,0,0.000,1,0,0.110,0.006,0.020,-0.100,-0.040,-0.056,-0.114,0.996,-0.006,0.000,0.000,0.000,0.000,0.000,0.000,0,2,1,2,7,255,1224,200,1039,1224
stim,1007,1007,1,102958.829,0.998,0.058,-0.027,-0.013,210,0,338,1003,3839,905,309,778,0,0.000,1,0,0.092,0.010,0.080,-0.040,0.020,-0.057,-0.113,0.995,-0.010,0.002,0.000,0.000,0.000,0.000,0.000,0,2,1,2,7,255,1224,200,1044,1224
stim,1007,1007,1,102963.829,0.998,0.058,-0.027,-0.013,213,0,341,1002,3827,910,308,776,0,0.000,1,0,0.110,0.006,0.020,-0.100,-0.040,-0.056,-0.115,0.994,-0.006,0.002,-0.006,0.000,0.000,0.000,0.000,0,2,1,2,7,255,1224,200,1049,1224
stim,1007,1007,1,102968.829,0.998,0.058,-0.027,-0.013,213,0,339,996,3830,911,308,787,0,0.000,1,0,0.130,0.003,0.080,0.020,-0.100,-0.056,-0.114,0.996,-0.002,0.002,-0.006,0.000,0.000,0.000,0.000,0,2,1,2,7,255,1224,200,1054,1224
stim,1023,1023,1,102973.829,0.998,0.058,-0.027,-0.013,215,0,343,999,3829,911,309,775,0,0.000,1,0,0.237,0.002,0.200,0.080,-0.100,-0.055,-0.112,0.996,0.000,0.002,0.002,0.000,0.000,0.000,0.000,0,2,1,2,7,255,1224,200,1059,1224
stim,1023,1023,1,102978.829,0.998,0.058,-0.027,-0.013,217,0,343,999,3834,912,308,776,0,0.000,1,0,0.370,0.018,0.140,-0.040,0.340,-0.057,-0.112,0.999,0.000,0.018,0.004,0.000,0.000,0.000,0.000,0,2,1,2,7,255,1224,200,1064,1224
stim,1043,1043,1,102983.829,0.998,0.058,-0.027,-0.013,213,0,345,999,3829,909,309,778,0,0.000,1,0,0.675,0.023,-0.540,-0.220,0.340,-0.058,-0.119,0.995,-0.014,0.018,0.006,0.000,0.000,0.000,0.000,0,2,1,2,7,255,1224,200,1069,1224
stim,1043,1043,1,102988.829,0.998,0.058,-0.027,-0.013,207,0,341,993,3829,917,309,778,0,0.000,1,0,0.925,0.050,-0.420,0.080,-0.820,-0.050,-0.123,0.988,-0.014,-0.048,0.006,0.000,0.000,0.000,0.000,0,2,1,2,7,255,1224,200,1074,1224
stim,1043,1043,1,102993.829,0.998,0.058,-0.027,-0.013,211,0,345,999,3827,915,309,775,0,0.000,1,0,1.424,0.051,1.300,0.020,0.580,-0.058,-0.099,0.993,-0.018,-0.048,-0.036,0.000,0.000,0.000,0.000,0,2,1,2,7,255,1224,200,1079,1224
stim,1043,1043,1,102998.829,0.998,0.058,-0.027,-0.013,205,0,335,999,3828,910,307,779,0,0.000,1,0,0.763,0.040,-0.360,-0.340,0.580,-0.061,-0.112,1.008,-0.030,0.026,-0.036,0.000,0.000,0.000,0.000,0,2,1,2,7,255,1224,200,1084,1224
stim,1079,1079,1,103003.829,0.998,0.058,-0.027,-0.013,207,0,343,993,3835,910,310,779,0,0.000,1,0,2.247,0.040,-0.480,0.640,-2.100,-0.048,-0.135,0.993,-0.030,0.026,0.000,0.000,0.000,0.000,0.000,0,2,1,2,7,255,1224,200,1089,1224
stim,1079,1079,1,103008.829,0.998,0.058,-0.027,-0.013,203,0,341,991,3829,911,311,783,0,0.000,1,0,2.808,0.049,-0.180,-0.880,2.660,-0.059,-0.087,0.982,-0.042,0.026,0.000,0.000,0.000,0.000,0.000,0,2,1,2,7,255,1224,200,1094,1224
stim,1079,1079,1,103013.829,0.998,0.058,-0.027,-0.013,213,0,335,992,3825,915,306,776,0,0.000,1,0,2.112,0.213,0.320,0.820,-1.920,-0.053,-0.142,1.006,0.036,-0.210,0.000,0.000,0.000,0.000,0.000,0,2,1,2,7,255,1224,200,1099,1224
stim,1079,1079,1,103018.829,0.998,0.057,-0.027,-0.013,205,0,341,995,3835,911,313,785,0,0.000,1,0,1.995,0.249,0.260,-0.940,1.740,-0.065,-0.085,0.986,-0.050,0.244,-0.114,0.000,0.000,0.000,0.000,0,2,1,2,7,255,1224,200,1104,1224
stim,1080,1080,1,103023.829,0.998,0.058,-0.027,-0.013,204,0,336,1002,3819,915,308,783,0,0.000,1,0,2.639,0.249,0.020,1.180,-2.360,-0.049,-0.141,1.008,0.036,-0.246,0.134,0.000,0.000,0.000,0.000,0,2,1,2,7,255,1224,200,1109,1224
stim,1080,1080,1,103028.829,0.998,0.058,-0.027,-0.013,206,0,344,997,3835,905,308,781,0,0.000,1,0,2.406,0.183,-1.340,-1.320,1.500,-0.052,-0.094,0.984,0.020,0.182,-0.114,0.000,0.000,0.000,0.000,0,2,1,2,7,255,1224,200,1114,1224
stim,1080,1080,1,103033.829,0.998,0.058,-0.027,-0.013,203,0,340,995,3823,915,307,777,0,0.000,1,0,2.236,0.114,1.840,1.240,-0.280,-0.063,-0.125,0.997,0.020,-0.112,0.030,0.000,0.000,0.000,0.000,0,2,1,2,7,255,1224,200,1119,1224
stim,1111,1111,1,103038.830,0.998,0.058,-0.027,-0.013,199,0,343,990,3835,917,311,775,0,0.000,1,0,1.599,0.041,-1.220,-0.760,-0.700,-0.049,-0.111,1.005,0.020,0.036,0.030,0.000,0.000,0.000,0.000,0,2,1,2,7,255,1224,200,1124,1224
stim,1111,1111,1,103043.829,0.998,0.058,-0.027,-0.013,205,0,346,999,3836,907,308,779,0,0.000,1,0,1.404,0.041,-0.840,-0.100,1.120,-0.057,-0.105,0.981,-0.020,0.036,0.030,0.000,0.000,0.000,0.000,0,2,1,2,7,255,1224,200,1129,1224
stim,1111,1111,1,103048.829,0.998,0.058,-0.027,-0.013,199,0,344,1001,3829,914,307,779,0,0.000,1,0,1.944,0.041,1.720,0.640,-0.640,-0.069,-0.128,0.998,-0.020,0.036,0.052,0.000,0.000,0.000,0.000,0,2,1,2,7,255,1224,200,1134,1224
stim,1111,1111,1,103053.829,0.998,0.058,-0.027,-0.013,199,0,341,995,3821,915,308,781,0,0.000,1,0,1.604,0.023,-0.300,-0.220,-1.560,-0.049,-0.114,1.005,-0.020,0.012,0.052,0.000,0.000,0.000,0.000,0,2,1,2,7,255,1224,200,1139,1224
stim,1111,1111,1,103058.829,0.998,0.058,-0.027,-0.013,199,0,343,998,3832,907,313,781,0,0.000,1,0,1.801,0.073,-1.520,-0.400,0.880,-0.038,-0.097,0.990,0.072,0.012,0.052,0.000,0.000,0.000,0.000,0,2,1,2,7,255,1224,200,1144,1224
stim,1112,1112,1,103063.829,0.998,0.058,-0.027,-0.013,206,0,332,990,3827,915,307,775,0,0.000,1,0,1.478,0.073,0.260,0.460,1.380,-0.060,-0.113,0.987,0.072,0.012,-0.074,0.000,0.000,0.000,0.000,0,2,1,2,7,255,1224,200,1149,1224
stim,1112,1112,1,103068.829,0.998,0.058,-0.027,-0.013,197,0,333,991,3815,905,307,792,0,0.000,1,0,1.095,0.042,0.980,0.280,-0.400,-0.071,-0.128,0.999,-0.042,-0.002,-0.074,0.000,0.000,0.000,0.000,0,2,1,2,7,255,1224,200,1154,1224
stim,1122,1122,1,103073.829,0.998,0.058,-0.027,-0.013,199,0,333,992,3833,910,312,777,0,0.000,1,0,1.282,0.100,0.080,-0.220,-1.260,-0.062,-0.123,1.001,-0.054,-0.084,0.062,0.000,0.000,0.000,0.000,0,2,1,2,7,255,1224,200,1159,1224
stim,1122,1122,1,103078.829,0.998,0.058,-0.027,-0.013,200,0,333,990,3821,915,309,776,0,0.000,1,0,1.022,0.100,-0.840,-0.040,-0.580,-0.049,-0.111,0.997,-0.054,-0.084,0.062,0.000,0.000,0.000,0.000,0,2,1,2,7,255,1224,200,1164,1224
stim,1135,1135,1,103083.829,0.998,0.058,-0.027,-0.013,192,0,332,998,3829,909,311,779,0,0.000,1,0,0.773,0.076,-0.720,0.020,0.280,-0.046,-0.105,0.994,0.068,0.034,0.006,0.000,0.000,0.000,0.000,0,2,1,2,7,255,1224,200,1169,1224
stim,1135,1135,1,103088.829,0.998,0.058,-0.027,-0.013,188,0,341,987,3835,913,312,779,0,0.000,1,0,0.487,0.086,-0.240,0.140,0.400,-0.052,-0.108,0.991,0.068,0.052,-0.030,0.000,0.000,0.000,0.000,0,2,1,2,7,255,1224,200,1174,1224
stim,1151,1151,1,103093.829,0.998,0.058,-0.027,-0.013,197,0,333,989,3835,911,304,779,0,0.000,1,0,0.323,0.059,0.140,0.080,0.280,-0.056,-0.114,0.992,0.028,0.052,-0.030,0.000,0.000,0.000,0.000,0,2,1,2,7,255,1224,200,1179,1224
stim,1151,1151,1,103098.829,0.998,0.058,-0.027,-0.013,189,0,335,989,3819,911,303,783,0,0.000,1,0,0.332,0.010,0.320,0.080,0.040,-0.059,-0.116,0.995,-0.008,-0.006,-0.028,0.000,0.000,0.000,0.000,0,2,1,2,7,255,1224,200,1184,1224
stim,1183,1183,1,103103.829,0.998,0.058,-0.027,-0.013,189,0,331,989,3827,904,311,780,0,0.000,1,0,0.190,0.029,0.140,0.080,-0.100,-0.058,-0.115,0.995,-0.024,-0.016,0.002,0.000,0.000,0.000,0.000,0,2,1,2,7,255,1224,200,1189,1224
stim,1183,1183,1,103108.830,0.998,0.058,-0.027,-0.013,191,0,337,987,3827,909,311,781,0,0.000,1,0,0.162,0.029,0.020,0.020,-0.160,-0.057,-0.115,0.996,-0.024,-0.016,0.004,0.000,0.000,0.000,0.000,0,2,1,2,7,255,1224,200,1194,1224
stim,1183,1183,1,103113.829,0.998,0.058,-0.027,-0.013,188,0,341,985,3825,910,311,777,0,0.000,1,0,0.201,0.020,-0.120,0.020,-0.160,-0.056,-0.114,0.997,-0.014,-0.014,0.012,0.000,0.000,0.000,0.000,0,2,1,2,7,255,1224,200,1199,1224
stim,1183,1183,1,103118.829,0.998,0.058,-0.027,-0.013,188,0,339,978,3817,908,307,781,0,0.000,1,0,0.207,0.004,-0.180,0.020,-0.100,-0.055,-0.114,0.995,0.000,-0.004,0.012,0.000,0.000,0.000,0.000,0,2,1,2,7,255,1224,200,1204,1224
stim,1183,1183,1,103123.829,0.998,0.058,-0.027,-0.013,187,0,328,983,3840,913,310,777,0,0.000,1,0,0.207,0.000,-0.180,0.020,-0.100,-0.056,-0.114,0.996,0.000,0.000,0.004,0.000,0.000,0.000,0.000,0,2,1,2,7,255,1224,200,1209,1224
stim,1183,1183,1,103128.829,0.998,0.058,-0.027,-0.013,190,0,329,984,3821,909,308,776,0,0.000,1,0,0.242,0.000,-0.180,0.020,-0.160,-0.056,-0.114,0.994,0.000,0.000,0.000,0.000,0.000,0.000,0.000,0,2,1,2,7,255,1224,200,1214,1224
stim,1183,1183,1,103133.829,0.998,0.058,-0.027,-0.013,187,0,327,975,3828,915,311,773,0,0.000,1,0,0.190,0.002,-0.100,0.020,-0.160,-0.057,-0.114,0.996,0.000,-0.002,0.004,0.000,0.000,0.000,0.000,0,2,1,2,7,255,1224,200,1219,1224
stim,1199,1199,0,103138.829,0.998,0.058,-0.027,-0.013,184,0,324,981,3829,910,311,777,0,0.000,1,0,0.193,0.015,-0.100,-0.040,-0.160,-0.058,-0.115,0.996,-0.014,-0.004,0.006,0.000,0.000,0.000,0.000,0,2,0,2,7,255,1224,200,0,1224
stim,1199,1199,0,103143.829,0.998,0.058,-0.027,-0.013,185,0,318,979,3825,911,309,780,0,0.000,1,0,0.104,0.017,-0.100,0.020,-0.020,-0.057,-0.115,0.995,-0.014,-0.010,0.006,0.000,0.000,0.000,0.000,0,2,0,2,7,255,1224,200,5,1224
stim,1199,1199,0,103148.829,0.998,0.058,-0.027,-0.013,189,0,328,970,3845,907,309,779,0,0.000,1,0,0.110,0.014,-0.100,0.020,0.040,-0.056,-0.114,0.996,-0.010,-0.010,0.004,0.000,0.000,0.000,0.000,0,2,0,2,7,255,1224,200,10,1224
stim,1199,1199,0,103153.829,0.998,0.058,-0.027,-0.013,189,0,333,987,3823,911,313,788,0,0.000,1,0,0.060,0.004,-0.040,0.020,0.040,-0.054,-0.113,0.997,-0.004,0.000,0.004,0.000,0.000,0.000,0.000,0,2,0,2,7,255,1224,200,15,1224
stim,1199,1199,0,103158.829,0.998,0.058,-0.027,-0.013,200,0,343,981,3838,915,307,779,0,0.000,1,0,0.104,0.017,-0.100,0.020,-0.020,-0.054,-0.112,0.996,0.016,0.006,0.004,0.000,0.000,0.000,0.000,0,2,0,2,7,255,1224,200,20,1224
stim,1199,1199,0,103163.829,0.998,0.058,-0.027,-0.013,203,0,336,984,3835,909,311,789,0,0.000,1,0,0.104,0.017,0.020,0.020,-0.100,-0.054,-0.114,0.995,0.016,0.006,0.002,0.000,0.000,0.000,0.000,0,2,0,2,7,255,1224,200,25,1224
stim,1215,1215,0,103168.829,0.998,0.058,-0.027,-0.013,197,0,335,985,3821,914,311,789,0,0.000,1,0,0.104,0.016,0.020,0.020,-0.100,-0.055,-0.113,0.994,0.014,0.008,-0.002,0.000,0.000,0.000,0.000,0,2,0,2,7,255,1224,200,30,1224
stim,1215,1215,0,103173.829,0.998,0.058,-0.027,-0.013,197,0,335,991,3820,919,313,788,0,0.000,1,0,0.028,0.011,0.000,0.020,0.020,-0.055,-0.112,0.994,0.008,0.008,-0.012,0.000,0.000,0.000,0.000,0,2,0,2,7,255,1224,200,35,1224
stim,1231,1231,0,103178.829,0.998,0.058,-0.027,-0.013,204,0,341,997,3845,917,311,781,0,0.000,1,0,0.299,0.011,-0.240,0.080,0.160,-0.056,-0.115,0.995,0.008,0.008,-0.012,0.000,0.000,0.000,0.000,0,2,0,2,7,255,1224,200,40,1224
stim,1231,1231,0,103183.829,0.998,0.058,-0.027,-0.013,205,0,341,999,3835,919,309,783,0,0.000,1,0,0.450,0.016,-0.420,0.020,-0.160,-0.061,-0.119,0.997,0.000,-0.016,-0.004,0.000,0.000,0.000,0.000,0,2,0,2,7,255,1224,200,45,1224
stim,1231,1231,0,103188.829,0.998,0.058,-0.027,-0.013,201,0,340,995,3830,916,310,787,0,0.000,1,0,0.796,0.063,-0.420,-0.220,-0.640,-0.062,-0.118,0.997,-0.050,-0.038,0.020,0.000,0.000,0.000,0.000,0,2,0,2,7,255,1224,200,50,1224
stim,1231,1231,0,103193.829,0.998,0.057,-0.027,-0.013,199,0,337,991,3827,910,314,787,0,0.000,1,0,0.722,0.063,0.200,-0.460,-0.520,-0.049,-0.105,0.993,-0.050,-0.038,0.020,0.000,0.000,0.000,0.000,0,2,0,2,7,255,1224,200,55,1224
stim,1247,1247,0,103198.829,0.998,0.057,-0.027,-0.013,201,0,339,991,3839,916,313,788,0,0.000,1,0,1.291,0.098,0.800,0.160,1.000,-0.042,-0.095,0.988,0.060,0.078,-0.032,0.000,0.000,0.000,0.000,0,2,0,2,7,255,1224,200,60,1224
stim,1247,1247,0,103203.829,0.998,0.057,-0.027,-0.013,206,0,341,999,3836,917,309,783,0,0.000,1,0,1.854,0.098,0.200,0.880,1.620,-0.061,-0.121,0.993,0.060,0.078,-0.032,0.000,0.000,0.000,0.000,0,2,0,2,7,255,1224,200,65,1224
stim,1280,1280,0,103208.829,0.998,0.058,-0.027,-0.013,203,0,339,997,3829,909,313,789,0,0.000,1,0,1.810,0.090,-1.160,0.160,-1.380,-0.081,-0.147,1.010,-0.048,-0.076,-0.012,0.000,0.000,0.000,0.000,0,2,0,2,7,255,1224,200,70,1224
stim,1280,1280,0,103213.829,0.998,0.058,-0.027,-0.013,202,0,340,1005,3839,919,313,783,0,0.000,1,0,3.104,0.090,-0.600,-1.680,-2.540,-0.047,-0.105,1.003,-0.048,-0.076,0.066,0.000,0.000,0.000,0.000,0,2,0,2,7,255,1224,200,75,1224
stim,1280,1280,0,103218.829,0.998,0.057,-0.027,-0.013,204,0,340,999,3833,918,313,787,0,0.000,1,0,2.822,0.125,1.220,0.160,2.540,-0.030,-0.075,0.971,0.082,0.094,0.066,0.000,0.000,0.000,0.000,0,2,0,2,7,255,1224,200,80,1224
stim,1280,1280,0,103223.829,0.998,0.057,-0.027,-0.013,207,0,341,1004,3827,915,312,779,0,0.000,1,0,2.602,0.125,0.200,2.340,1.120,-0.077,-0.143,0.993,0.082,0.094,0.020,0.000,0.000,0.000,0.000,0,2,0,2,7,255,1224,200,85,1224
stim,1295,1295,0,103228.829,0.998,0.058,-0.027,-0.013,211,0,345,1003,3850,920,311,784,0,0.000,1,0,3.988,0.126,-1.280,-1.800,-3.320,-0.056,-0.130,1.030,0.022,-0.124,0.020,0.000,0.000,0.000,0.000,0,2,0,2,7,255,1224,200,90,1224
stim,1295,1295,0,103233.829,0.998,0.057,-0.027,-0.013,204,0,341,998,3833,911,313,789,0,0.000,1,0,2.902,0.126,0.620,-1.260,2.540,-0.041,-0.078,0.966,0.022,-0.124,0.020,0.000,0.000,0.000,0.000,0,2,0,2,7,255,1224,200,95,1224
stim,1295,1295,0,103238.829,0.998,0.057,-0.027,-0.013,211,0,341,1000,3829,915,311,788,0,0.000,1,0,3.641,0.126,0.080,3.560,-0.760,-0.078,-0.144,0.988,0.022,-0.124,-0.024,0.000,0.000,0.000,0.000,0,2,0,2,7,255,1224,200,100,1224
stim,1295,1295,0,103243.829,0.998,0.057,-0.027,-0.013,208,0,346,1007,3849,917,311,789,0,0.000,1,0,3.304,0.209,-0.420,-3.080,-1.120,-0.028,-0.101,1.034,0.116,0.174,-0.024,0.000,0.000,0.000,0.000,0,2,0,2,7,255,1224,200,105,1224
stim,1295,1295,0,103248.829,0.998,0.057,-0.027,-0.013,204,0,343,1007,3823,908,313,789,0,0.000,1,0,2.885,0.217,0.500,0.820,2.720,-0.077,-0.111,0.948,-0.214,-0.034,-0.024,0.000,0.000,0.000,0.000,0,2,0,2,7,255,1224,200,110,1224
stim,1295,1295,0,103253.829,0.998,0.058,-0.027,-0.013,211,0,344,997,3847,919,309,781,0,0.000,1,0,4.241,0.074,-0.780,1.800,-3.760,-0.051,-0.133,1.030,0.066,-0.034,0.346,0.000,0.000,0.000,0.000,0,2,0,2,7,255,1224,200,115,1224
stim,1312,1312,0,103258.830,0.998,0.057,-0.027,-0.013,213,0,339,1003,3831,915,311,791,0,0.000,1,0,5.436,0.074,1.100,-3.580,3.940,-0.042,-0.085,0.985,0.066,-0.034,-0.138,0.000,0.000,0.000,0.000,0,2,0,2,7,255,1224,200,120,1224
stim,1312,1312,0,103263.829,0.998,0.058,-0.027,-0.013,203,0,335,995,3821,908,304,779,0,0.000,1,0,5.639,0.162,-1.580,4.060,-3.580,-0.080,-0.148,0.985,0.066,-0.148,-0.048,0.000,0.000,0.000,0.000,0,2,0,2,7,255,1224,200,125,1224
stim,1312,1312,0,103268.829,0.998,0.057,-0.027,-0.013,208,0,344,1011,3840,912,309,783,0,0.000,1,0,4.892,0.291,1.900,-3.400,2.960,-0.030,-0.080,1.021,0.118,0.266,-0.048,0.000,0.000,0.000,0.000,0,2,0,2,7,255,1224,200,130,1224
stim,1312,1312,0,103273.829,0.998,0.058,-0.027,-0.013,209,0,341,1003,3822,915,314,791,0,0.000,1,0,4.103,0.419,-2.000,2.400,-2.660,-0.079,-0.146,0.969,-0.228,-0.352,-0.048,0.000,0.000,0.000,0.000,0,2,0,2,7,255,1224,200,135,1224
stim,1327,1327,0,103278.829,0.998,0.057,-0.027,-0.013,215,0,345,1001,3848,920,311,788,0,0.000,1,0,3.450,0.376,1.900,-1.560,2.420,-0.039,-0.082,1.017,0.168,0.336,0.164,0.000,0.000,0.000,0.000,0,2,0,2,7,255,1224,200,140,1224
stim,1327,1327,0,103283.829,0.998,0.058,-0.027,-0.013,213,0,344,1001,3835,919,309,789,0,0.000,1,0,3.283,0.356,-1.940,1.120,-2.400,-0.067,-0.146,0.982,-0.112,-0.338,-0.084,0.000,0.000,0.000,0.000,0,2,0,2,7,255,1224,200,145,1224
stim,1344,1344,0,103288.829,0.998,0.057,-0.027,-0.013,215,0,343,1000,3837,920,311,791,0,0.000,1,0,3.117,0.335,1.840,-1.020,2.300,-0.049,-0.081,1.004,0.060,0.330,0.046,0.000,0.000,0.000,0.000,0,2,0,2,7,255,1224,200,150,1224
stim,1344,1344,0,103293.829,0.998,0.058,-0.027,-0.013,211,0,345,1003,3835,916,312,791,0,0.000,1,0,3.090,0.332,-2.000,0.940,-2.160,-0.061,-0.147,0.992,-0.040,-0.330,0.008,0.000,0.000,0.000,0.000,0,2,0,2,7,255,1224,200,155,1224
stim,1344,1344,0,103298.829,0.998,0.057,-0.027,-0.013,216,0,344,1005,3835,914,309,783,0,0.000,1,0,2.745,0.289,2.080,-0.880,1.560,-0.052,-0.084,0.997,0.024,0.288,0.008,0.000,0.000,0.000,0.000,0,2,0,2,7,255,1224,200,160,1224
stim,1344,1344,0,103303.829,0.998,0.058,-0.027,-0.013,207,0,342,1009,3836,917,314,787,0,0.000,1,0,2.512,0.227,-2.240,0.640,-0.940,-0.059,-0.137,0.995,-0.024,-0.226,0.008,0.000,0.000,0.000,0.000,0,2,0,2,7,255,1224,200,165,1224
stim,1379,1379,0,103308.829,0.998,0.057,-0.027,-0.013,206,0,346,1011,3837,912,312,787,0,0.000,1,0,1.818,0.085,1.780,-0.340,-0.140,-0.052,-0.105,0.996,0.024,0.082,-0.006,0.000,0.000,0.000,0.000,0,2,0,2,7,255,1224,200,170,1224
stim,1379,1379,0,103313.829,0.998,0.057,-0.027,-0.013,206,0,341,1001,3829,919,309,787,0,0.000,1,0,1.467,0.068,-1.320,0.020,0.640,-0.059,-0.106,0.994,-0.024,0.064,-0.006,0.000,0.000,0.000,0.000,0,2,0,2,7,255,1224,200,175,1224
stim,1379,1379,0,103318.830,0.998,0.058,-0.027,-0.013,212,0,343,1007,3836,916,311,787,0,0.000,1,0,0.907,0.071,0.320,0.220,-0.820,-0.053,-0.139,0.997,0.030,0.064,-0.006,0.000,0.000,0.000,0.000,0,2,0,2,7,255,1224,200,180,1224
stim,1379,1379,0,103323.829,0.998,0.057,-0.027,-0.013,208,0,346,1011,3837,920,313,789,0,0.000,1,0,0.341,0.064,0.260,-0.220,-0.020,-0.055,-0.083,0.992,-0.002,0.064,-0.020,0.000,0.000,0.000,0.000,0,2,0,2,7,255,1224,200,185,1224
stim,1380,1380,0,103328.829,0.998,0.057,-0.027,-0.013,215,0,343,997,3827,915,309,784,0,0.000,1,0,1.151,0.208,-0.660,0.080,0.940,-0.059,-0.135,0.997,-0.002,-0.208,0.044,0.000,0.000,0.000,0.000,0,2,0,2,7,255,1224,200,190,1224
stim,1380,1380,0,103333.829,0.998,0.057,-0.027,-0.013,211,0,342,1007,3827,918,313,793,0,0.000,1,0,1.197,0.016,0.200,0.020,-1.180,-0.054,-0.115,0.998,-0.002,-0.016,0.024,0.000,0.000,0.000,0.000,0,2,0,2,7,255,1224,200,195,1224
stim,1411,1411,0,103338.829,0.998,0.057,-0.027,-0.013,215,0,345,1011,3837,916,309,787,0,0.000,1,0,0.216,0.019,-0.040,0.140,0.160,-0.056,-0.094,0.987,-0.010,-0.016,0.024,0.000,0.000,0.000,0.000,0,2,0,2,7,255,1224,200,200,1224
stim,1411,1411,0,103343.829,0.998,0.057,-0.027,-0.013,213,0,340,1003,3823,919,313,789,0,0.000,1,0,1.105,0.019,0.080,-0.220,1.080,-0.058,-0.135,1.004,-0.010,-0.016,0.024,0.000,0.000,0.000,0.000,0,2,0,2,7,255,1224,200,205,1224
stim,1411,1411,0,103348.829,0.998,0.057,-0.027,-0.013,211,0,343,1004,3833,916,313,793,0,0.000,1,0,1.555,0.016,-0.660,0.280,-1.380,-0.056,-0.112,0.994,-0.010,0.012,-0.016,0.000,0.000,0.000,0.000,0,2,0,2,7,255,1224,200,210,1224
stim,1411,1411,0,103353.829,0.998,0.057,-0.027,-0.013,211,0,342,1008,3829,917,315,793,0,0.000,1,0,0.284,0.012,0.260,0.080,-0.080,-0.054,-0.101,0.986,-0.002,0.012,-0.016,0.000,0.000,0.000,0.000,0,2,0,2,7,255,1224,200,215,1224
stim,1411,1411,0,103358.829,0.998,0.057,-0.027,-0.013,217,0,343,999,3831,914,309,788,0,0.000,1,0,1.342,0.012,0.560,-0.220,1.200,-0.059,-0.123,1.006,-0.002,0.012,-0.016,0.000,0.000,0.000,0.000,0,2,0,2,7,255,1224,200,220,1224
stim,1411,1411,0,103363.829,0.998,0.057,-0.027,-0.013,207,0,337,1001,3829,911,311,777,0,0.000,1,0,1.388,0.073,-1.140,0.220,-0.760,-0.059,-0.121,0.997,-0.020,-0.070,0.028,0.000,0.000,0.000,0.000,0,2,0,2,7,255,1224,200,225,1224
stim,1411,1411,0,103368.829,0.998,0.057,-0.027,-0.013,219,0,345,1011,3835,909,307,787,0,0.000,1,0,0.830,0.073,-0.100,0.080,-0.820,-0.053,-0.105,0.984,-0.020,-0.070,0.028,0.000,0.000,0.000,0.000,0,2,0,2,7,255,1224,200,230,1224
stim,1423,1423,0,103373.829,0.998,0.057,-0.027,-0.013,211,0,343,1005,3829,911,313,792,0,0.000,1,0,1.405,0.045,1.240,-0.160,0.640,-0.054,-0.109,0.999,0.020,0.040,0.028,0.000,0.000,0.000,0.000,0,2,0,2,7,255,1224,200,235,1224
stim,1423,1423,0,103378.829,0.998,0.057,-0.027,-0.013,211,0,343,1003,3834,917,315,793,0,0.000,1,0,0.625,0.045,-0.480,0.020,0.400,-0.059,-0.123,1.008,0.020,0.040,0.032,0.000,0.000,0.000,0.000,0,2,0,2,7,255,1224,200,240,1224
stim,1444,1444,0,103383.829,0.998,0.057,-0.027,-0.013,211,0,340,1006,3827,917,312,787,0,0.000,1,0,1.565,0.046,-1.400,0.020,-0.700,-0.057,-0.117,0.989,-0.012,-0.044,0.032,0.000,0.000,0.000,0.000,0,2,0,2,7,255,1224,200,245,1224
stim,1444,1444,0,103388.829,0.998,0.057,-0.027,-0.013,211,0,343,1002,3829,919,314,787,0,0.000,1,0,0.597,0.046,0.380,0.020,-0.460,-0.052,-0.104,0.984,-0.012,-0.044,-0.054,0.000,0.000,0.000,0.000,0,2,0,2,7,255,1224,200,250,1224
stim,1444,1444,0,103393.829,0.998,0.057,-0.027,-0.013,216,0,345,1003,3835,922,309,789,0,0.000,1,0,1.260,0.031,1.240,-0.040,0.220,-0.053,-0.112,1.002,0.024,0.020,-0.054,0.000,0.000,0.000,0.000,0,2,0,2,7,255,1224,200,255,1224
stim,1444,1444,0,103398.829,0.998,0.057,-0.027,-0.013,210,0,347,1010,3835,918,312,791,0,0.000,1,0,0.672,0.031,-0.540,0.020,0.400,-0.057,-0.121,1.005,0.024,0.020,0.062,0.000,0.000,0.000,0.000,0,2,0,2,7,255,1224,200,260,1224
stim,1455,1455,0,103403.829,0.998,0.057,-0.027,-0.013,216,0,347,1004,3851,915,310,788,0,0.000,1,0,1.469,0.016,-1.460,0.020,-0.160,-0.057,-0.114,0.989,-0.002,-0.016,0.062,0.000,0.000,0.000,0.000,0,2,0,2,7,255,1224,200,265,1224
stim,1455,1455,0,103408.829,0.998,0.057,-0.027,-0.013,210,0,344,1011,3830,919,315,789,0,0.000,1,0,0.502,0.016,0.200,0.020,-0.460,-0.054,-0.110,0.983,-0.002,-0.016,-0.056,0.000,0.000,0.000,0.000,0,2,0,2,7,255,1224,200,270,1224
stim,1489,1489,0,103413.829,0.998,0.057,-0.027,-0.013,213,0,341,1001,3831,915,315,791,0,0.000,1,0,1.155,0.016,1.120,0.020,-0.280,-0.053,-0.115,0.999,0.012,-0.010,-0.056,0.000,0.000,0.000,0.000,0,2,0,2,7,255,1224,200,275,1224
stim,1489,1489,0,103418.829,0.998,0.057,-0.027,-0.013,211,0,343,1003,3837,918,315,793,0,0.000,1,0,0.300,0.017,-0.100,-0.040,0.280,-0.055,-0.120,1.003,0.014,-0.010,0.038,0.000,0.000,0.000,0.000,0,2,0,2,7,255,1224,200,280,1224
stim,1489,1489,0,103423.829,0.998,0.057,-0.027,-0.013,212,0,347,1011,3848,920,311,791,0,0.000,1,0,1.199,0.017,-1.080,-0.040,0.520,-0.057,-0.113,0.994,0.014,-0.010,0.038,0.000,0.000,0.000,0.000,0,2,0,2,7,255,1224,200,285,1224
stim,1490,1490,0,103428.829,0.998,0.057,-0.027,-0.013,211,0,344,1008,3829,921,311,795,0,0.000,1,0,0.422,0.016,-0.420,0.020,-0.040,-0.060,-0.111,0.988,-0.016,0.000,-0.010,0.000,0.000,0.000,0.000,0,2,0,2,7,255,1224,200,290,1224
stim,1490,1490,0,103433.829,0.998,0.057,-0.027,-0.013,211,0,347,1011,3840,919,311,788,0,0.000,1,0,0.781,0.016,0.560,0.160,-0.520,-0.057,-0.116,0.994,-0.016,0.000,-0.012,0.000,0.000,0.000,0.000,0,2,0,2,7,255,1224,200,295,1224
stim,1490,1490,0,103438.829,0.998,0.057,-0.027,-0.013,217,0,343,1005,3823,918,312,793,0,0.000,1,0,0.600,0.026,0.440,0.080,-0.400,-0.053,-0.117,1.000,-0.010,-0.024,-0.012,0.000,0.000,0.000,0.000,0,2,0,2,7,255,1224,200,300,1224
stim,1510,1510,0,103443.829,0.998,0.057,-0.027,-0.013,211,0,343,1007,3833,916,317,793,0,0.000,1,0,0.412,0.035,-0.300,-0.040,0.280,-0.053,-0.113,0.999,0.026,-0.024,0.030,0.000,0.000,0.000,0.000,0,2,0,2,7,255,1224,200,305,1224
stim,1510,1510,0,103448.829,0.998,0.057,-0.027,-0.013,211,0,345,1006,3831,921,314,787,0,0.000,1,0,0.634,0.027,-0.360,-0.040,0.520,-0.057,-0.112,0.994,0.026,0.006,0.030,0.000,0.000,0.000,0.000,0,2,0,2,7,255,1224,200,310,1224
stim,1510,1510,0,103453.829,0.998,0.057,-0.027,-0.013,216,0,347,1004,3835,921,311,791,0,0.000,1,0,0.066,0.013,-0.060,0.020,0.020,-0.061,-0.113,0.993,-0.012,0.006,-0.012,0.000,0.000,0.000,0.000,0,2,0,2,7,255,1224,200,315,1224
stim,1510,1510,0,103458.829,0.998,0.057,-0.027,-0.013,211,0,345,1006,3825,920,314,792,0,0.000,1,0,0.602,0.024,0.140,0.080,-0.580,-0.058,-0.117,0.995,-0.024,-0.002,-0.012,0.000,0.000,0.000,0.000,0,2,0,2,7,255,1224,200,320,1224
stim,1511,1511,0,103463.829,0.998,0.057,-0.027,-0.013,212,0,347,1012,3849,919,311,788,0,0.000,1,0,0.615,0.024,0.200,-0.040,-0.580,-0.054,-0.113,0.995,-0.024,-0.002,-0.002,0.000,0.000,0.000,0.000,0,2,0,2,7,255,1224,200,325,1224
stim,1511,1511,0,103468.829,0.998,0.057,-0.027,-0.013,214,0,347,1012,3828,917,313,788,0,0.000,1,0,0.092,0.018,0.080,-0.040,0.020,-0.053,-0.114,0.997,0.018,0.000,0.004,0.000,0.000,0.000,0.000,0,2,0,2,7,255,1224,200,330,1224
stim,1521,1521,0,103473.829,0.998,0.057,-0.027,-0.013,217,0,347,1005,3832,923,311,789,0,0.000,1,0,0.468,0.018,-0.240,-0.040,0.400,-0.056,-0.114,0.996,0.018,0.000,0.010,0.000,0.000,0.000,0.000,0,2,0,2,7,255,1224,200,335,1224
stim,1521,1521,0,103478.829,0.998,0.057,-0.027,-0.013,213,0,344,1006,3837,919,309,789,0,0.000,1,0,0.412,0.004,-0.300,-0.040,0.280,-0.059,-0.114,0.995,0.000,-0.004,0.010,0.000,0.000,0.000,0.000,0,2,0,2,7,255,1224,200,340,1224
stim,1542,1542,0,103483.829,0.998,0.057,-0.027,-0.013,216,0,346,1004,3845,921,311,787,0,0.000,1,0,0.281,0.027,0.020,0.020,-0.280,-0.058,-0.114,0.993,-0.026,-0.006,-0.004,0.000,0.000,0.000,0.000,0,2,0,2,7,255,1224,200,345,1224
stim,1542,1542,0,103488.829,0.998,0.057,-0.027,-0.013,216,0,347,1005,3837,919,311,790,0,0.000,1,0,0.474,0.026,0.320,0.080,-0.340,-0.055,-0.114,0.996,-0.026,-0.004,-0.004,0.000,0.000,0.000,0.000,0,2,0,2,7,255,1224,200,350,1224
stim,1544,1544,0,103493.829,0.998,0.057,-0.027,-0.013,216,0,343,1003,3823,917,314,791,0,0.000,1,0,0.183,0.010,0.080,-0.040,-0.160,-0.053,-0.113,0.998,0.010,-0.002,0.004,0.000,0.000,0.000,0.000,0,2,0,2,7,255,1224,200,355,1224
stim,1544,1544,0,103498.829,0.998,0.057,-0.027,-0.013,213,0,344,1005,3827,923,316,795,0,0.000,1,0,0.328,0.014,-0.240,-0.040,0.220,-0.054,-0.114,0.997,0.014,-0.002,0.012,0.000,0.000,0.000,0.000,0,2,0,2,7,255,1224,200,360,1224
stim,1544,1544,0,103503.829,0.998,0.057,-0.027,-0.013,214,0,342,1005,3830,915,313,794,0,0.000,1,0,0.341,0.014,-0.300,0.020,0.160,-0.058,-0.115,0.995,0.014,-0.002,0.012,0.000,0.000,0.000,0.000,0,2,0,2,7,255,1224,200,365,1224
stim,1544,1544,0,103508.829,0.998,0.057,-0.027,-0.013,211,0,342,1011,3829,917,312,789,0,0.000,1,0,0.035,0.017,0.020,0.020,-0.020,-0.057,-0.114,0.993,-0.016,-0.006,-0.002,0.000,0.000,0.000,0.000,0,2,0,2,7,255,1224,200,370,1224
stim,1583,1583,0,103513.829,0.998,0.057,-0.027,-0.013,217,0,345,1003,3829,922,312,793,0,0.000,1,0,0.262,0.024,0.140,0.020,-0.220,-0.057,-0.115,0.994,-0.016,-0.018,-0.012,0.000,0.000,0.000,0.000,0,2,0,2,7,255,1224,200,375,1224
stim,1583,1583,0,103518.830,0.998,0.057,-0.027,-0.013,211,0,341,1015,3833,920,313,790,0,0.000,1,0,0.130,0.012,0.080,0.020,-0.100,-0.055,-0.113,0.997,-0.010,-0.006,-0.012,0.000,0.000,0.000,0.000,0,2,0,2,7,255,1224,200,380,1224
stim,1583,1583,0,103523.829,0.998,0.057,-0.027,-0.013,217,0,347,1000,3829,923,312,793,0,0.000,1,0,0.185,0.006,-0.180,-0.040,0.020,-0.055,-0.113,0.996,0.006,0.002,0.002,0.000,0.000,0.000,0.000,0,2,0,2,7,255,1224,200,385,1224
stim,1583,1583,0,103528.829,0.998,0.057,-0.027,-0.013,210,0,345,1008,3832,923,315,794,0,0.000,1,0,0.256,0.006,-0.240,-0.040,0.080,-0.056,-0.114,0.994,0.006,0.002,0.002,0.000,0.000,0.000,0.000,0,2,0,2,7,255,1224,200,390,1224
stim,1583,1583,0,103533.829,0.998,0.057,-0.027,-0.013,215,0,344,1013,3825,916,313,793,0,0.000,1,0,0.075,0.002,-0.060,0.020,-0.040,-0.057,-0.114,0.995,0.000,-0.002,0.000,0.000,0.000,0.000,0.000,0,2,0,2,7,255,1224,200,395,1224
stim,1583,1583,0,103538.829,0.998,0.057,-0.027,-0.013,213,0,347,1005,3837,923,311,784,0,0.000,1,0,0.180,0.007,0.080,0.020,-0.160,-0.056,-0.114,0.995,-0.006,-0.004,-0.004,0.000,0.000,0.000,0.000,0,2,0,2,7,255,1224,200,400,1224
stim,1599,1599,0,103543.829,0.998,0.057,-0.027,-0.013,213,0,345,1007,3839,920,317,795,0,0.000,1,0,0.221,0.006,0.000,0.020,-0.220,-0.056,-0.114,0.997,-0.006,-0.002,0.000,0.000,0.000,0.000,0.000,0,2,0,2,7,255,1224,200,405,1224
stim,1599,1599,0,103548.829,0.998,0.057,-0.027,-0.013,207,0,339,997,3829,910,309,781,0,0.000,1,0,0.157,0.006,-0.120,0.020,-0.100,-0.055,-0.114,0.996,0.000,-0.006,0.008,0.000,0.000,0.000,0.000,0,2,0,2,7,255,1224,200,410,1224
stim,1599,1599,0,103553.829,0.998,0.057,-0.027,-0.013,215,0,343,1007,3831,917,317,794,0,0.000,1,0,0.133,0.006,-0.120,-0.040,-0.040,-0.056,-0.114,0.994,0.000,-0.006,0.008,0.000,0.000,0.000,0.000,0,2,0,2,7,255,1224,200,415,1224
stim,1599,1599,0,103558.829,0.998,0.057,-0.027,-0.013,213,0,348,1015,3827,919,315,789,0,0.000,1,0,0.185,0.009,-0.180,0.020,-0.040,-0.055,-0.116,0.995,0.004,-0.008,0.002,0.000,0.000,0.000,0.000,0,2,0,2,7,255,1224,200,420,1224
stim,1615,1615,0,103563.829,0.998,0.057,-0.027,-0.013,214,0,347,1008,3845,916,313,793,0,0.000,1,0,0.189,0.008,-0.060,0.080,-0.160,-0.057,-0.114,0.995,0.000,-0.008,-0.004,0.000,0.000,0.000,0.000,0,2,0,2,7,255,1224,200,425,1224
stim,1615,1615,0,103568.829,0.998,0.057,-0.027,-0.013,214,0,343,1006,3825,921,315,789,0,0.000,1,0,0.102,0.013,0.000,0.020,-0.100,-0.055,-0.115,0.995,0.004,-0.012,-0.004,0.000,0.000,0.000,0.000,0,2,0,2,7,255,1224,200,430,1224
stim,1631,1631,0,103573.829,0.998,0.057,-0.027,-0.013,217,0,347,1007,3844,921,313,793,0,0.000,1,0,0.075,0.009,-0.060,0.020,-0.040,-0.054,-0.113,0.996,0.004,-0.008,-0.004,0.000,0.000,0.000,0.000,0,2,0,2,7,255,1224,200,435,1224
stim,1631,1631,0,103578.829,0.998,0.057,-0.027,-0.013,215,0,343,1011,3833,920,317,795,0,0.000,1,0,0.123,0.014,-0.120,0.020,0.020,-0.054,-0.114,0.996,0.014,-0.002,0.004,0.000,0.000,0.000,0.000,0,2,0,2,7,255,1224,200,440,1224
stim,1631,1631,0,103583.829,0.998,0.057,-0.027,-0.013,213,0,349,1015,3849,919,311,790,0,0.000,1,0,0.123,0.014,-0.120,0.020,0.020,-0.056,-0.114,0.995,0.014,-0.002,0.004,0.000,0.000,0.000,0.000,0,2,0,2,7,255,1224,200,445,1224
stim,1631,1631,0,103588.829,0.998,0.057,-0.027,-0.013,211,0,343,1011,3831,916,317,796,0,0.000,1,0,0.157,0.006,-0.120,0.020,-0.100,-0.056,-0.113,0.995,-0.006,-0.002,0.000,0.000,0.000,0.000,0.000,0,2,0,2,7,255,1224,200,450,1224
stim,1647,1647,0,103593.829,0.998,0.057,-0.027,-0.013,211,0,345,1011,3821,919,313,793,0,0.000,1,0,0.118,0.010,-0.060,0.020,-0.100,-0.056,-0.115,0.996,-0.006,-0.008,0.000,0.000,0.000,0.000,0.000,0,2,0,2,7,255,1224,200,455,1224
stim,1647,1647,0,103598.829,0.998,0.057,-0.027,-0.013,212,0,343,1008,3826,921,316,789,0,0.000,1,0,0.075,0.002,-0.060,0.020,-0.040,-0.056,-0.114,0.995,0.000,-0.002,0.000,0.000,0.000,0.000,0.000,0,2,0,2,7,255,1224,200,460,1224
stim,1682,1682,0,103603.829,0.998,0.057,-0.027,-0.013,219,0,347,1013,3848,921,312,790,0,0.000,1,0,0.075,0.008,-0.060,0.020,-0.040,-0.057,-0.114,0.995,0.000,-0.008,0.000,0.000,0.000,0.000,0.000,0,2,0,2,7,255,1224,200,465,1224
stim,1682,1682,0,103608.829,0.998,0.057,-0.027,-0.013,215,0,347,1011,3844,923,313,791,0,0.000,1,0,0.128,0.004,-0.120,0.020,-0.040,-0.056,-0.113,0.997,-0.004,-0.002,0.000,0.000,0.000,0.000,0.000,0,2,0,2,7,255,1224,200,470,1224
stim,1683,1683,0,103613.829,0.998,0.057,-0.027,-0.013,217,0,346,1007,3837,916,314,793,0,0.000,1,0,0.118,0.009,-0.060,0.020,-0.100,-0.056,-0.115,0.995,-0.004,-0.008,0.000,0.000,0.000,0.000,0.000,0,2,0,2,7,255,1224,200,475,1224
stim,1683,1683,0,103618.829,0.998,0.057,-0.027,-0.013,213,0,345,1015,3833,919,316,793,0,0.000,1,0,0.172,0.004,-0.060,0.020,-0.160,-0.057,-0.114,0.995,-0.004,-0.002,0.000,0.000,0.000,0.000,0.000,0,2,0,2,7,255,1224,200,480,1224
stim,1683,1683,0,103623.829,0.998,0.057,-0.027,-0.013,212,0,345,1007,3847,918,313,790,0,0.000,1,0,0.172,0.012,-0.060,0.020,-0.160,-0.057,-0.114,0.995,-0.010,-0.006,0.000,0.000,0.000,0.000,0.000,0,2,0,2,7,255,1224,200,485,1224
stim,1683,1683,0,103628.829,0.998,0.057,-0.027,-0.013,219,0,343,1006,3832,918,318,785,0,0.000,1,0,0.204,0.012,-0.120,-0.040,-0.160,-0.055,-0.115,0.995,-0.010,-0.006,0.000,0.000,0.000,0.000,0.000,0,2,0,2,7,255,1224,200,490,1224
stim,1695,1695,0,103633.829,0.998,0.057,-0.027,-0.013,215,0,347,1007,3848,923,313,793,0,0.000,1,0,0.118,0.006,-0.060,0.020,-0.100,-0.056,-0.114,0.995,0.000,-0.006,0.000,0.000,0.000,0.000,0.000,0,2,0,2,7,255,1224,200,495,1224
stim,1695,1695,0,103638.829,0.998,0.057,-0.027,-0.013,219,0,345,1007,3822,919,316,793,0,0.000,1,0,0.123,0.012,-0.060,-0.040,-0.100,-0.056,-0.115,0.995,0.000,-0.012,0.000,0.000,0.000,0.000,0.000,0,2,0,2,7,255,1224,200,500,1224
stim,1695,1695,0,103643.829,0.998,0.057,-0.027,-0.013,213,0,342,1005,3833,920,317,793,0,0.000,1,0,0.082,0.006,-0.060,-0.040,-0.040,-0.056,-0.114,0.995,0.000,-0.006,0.000,0.000,0.000,0.000,0.000,0,2,0,2,7,255,1224,200,505,1224
stim,1695,1695,0,103648.829,0.998,0.057,-0.027,-0.013,215,0,349,1015,3849,919,313,789,0,0.000,1,0,0.157,0.010,-0.120,0.020,-0.100,-0.055,-0.115,0.996,0.000,-0.010,0.002,0.000,0.000,0.000,0.000,0,2,0,2,7,255,1224,200,510,1224
stim,1695,1695,0,103653.829,0.998,0.057,-0.027,-0.013,216,0,343,1015,3832,918,316,792,0,0.000,1,0,0.128,0.006,-0.120,0.020,-0.040,-0.056,-0.113,0.996,0.000,-0.006,0.004,0.000,0.000,0.000,0.000,0,2,0,2,7,255,1224,200,515,1224
stim,1696,1696,0,103658.829,0.998,0.057,-0.027,-0.013,205,0,343,1003,3838,914,311,782,0,0.000,1,0,0.082,0.011,-0.060,-0.040,-0.040,-0.055,-0.115,0.994,0.004,-0.010,0.004,0.000,0.000,0.000,0.000,0,2,0,2,7,255,1224,200,520,1224
stim,1712,1712,0,103663.829,0.998,0.057,-0.027,-0.013,215,0,348,1006,3835,923,316,792,0,0.000,1,0,0.075,0.004,-0.060,0.020,-0.040,-0.057,-0.114,0.995,-0.004,-0.002,0.000,0.000,0.000,0.000,0.000,0,2,0,2,7,255,1224,200,525,1224
stim,1712,1712,0,103668.829,0.998,0.057,-0.027,-0.013,209,0,339,997,3823,920,309,778,0,0.000,1,0,0.075,0.002,-0.060,0.020,-0.040,-0.056,-0.114,0.995,0.000,-0.002,0.000,0.000,0.000,0.000,0.000,0,2,0,2,7,255,1224,200,530,1224
stim,1728,1728,0,103673.829,0.998,0.057,-0.027,-0.013,219,0,347,1007,3835,921,312,792,0,0.000,1,0,0.035,0.006,0.020,0.020,0.020,-0.056,-0.114,0.995,-0.006,-0.002,0.000,0.000,0.000,0.000,0.000,0,2,0,2,7,255,1224,200,535,1224
stim,1728,1728,0,103678.829,0.998,0.057,-0.027,-0.013,213,0,347,1005,3847,923,312,792,0,0.000,1,0,0.035,0.004,0.020,0.020,-0.020,-0.056,-0.114,0.996,-0.004,-0.002,0.000,0.000,0.000,0.000,0.000,0,2,0,2,7,255,1224,200,540,1224
stim,1743,1743,0,103683.829,0.998,0.057,-0.027,-0.013,211,0,347,1013,3835,923,315,791,0,0.000,1,0,0.060,0.007,-0.040,-0.040,-0.020,-0.055,-0.114,0.996,-0.004,-0.006,0.004,0.000,0.000,0.000,0.000,0,2,0,2,7,255,1224,200,545,1224
stim,1743,1743,0,103688.829,0.998,0.057,-0.027,-0.013,211,0,349,1013,3836,920,313,791,0,0.000,1,0,0.060,0.007,-0.040,-0.040,-0.020,-0.057,-0.113,0.995,-0.004,-0.006,0.004,0.000,0.000,0.000,0.000,0,2,0,2,7,255,1224,200,550,1224
stim,1743,1743,0,103693.829,0.998,0.057,-0.027,-0.013,214,0,349,1013,3829,919,317,791,0,0.000,1,0,0.049,0.007,0.020,-0.040,-0.020,-0.056,-0.115,0.996,-0.004,-0.006,0.004,0.000,0.000,0.000,0.000,0,2,0,2,7,255,1224,200,555,1224
stim,1743,1743,0,103698.829,0.998,0.057,-0.027,-0.013,213,0,345,1007,3829,919,315,797,0,0.000,1,0,0.060,0.006,-0.040,-0.040,-0.020,-0.056,-0.113,0.995,-0.004,0.004,0.000,0.000,0.000,0.000,0.000,0,2,0,2,7,255,1224,200,560,1224
stim,1791,1791,0,103703.829,0.998,0.057,-0.027,-0.013,217,0,349,1011,3836,922,311,792,0,0.000,1,0,0.035,0.011,0.020,0.020,-0.020,-0.056,-0.115,0.996,-0.004,-0.010,0.006,0.000,0.000,0.000,0.000,0,2,0,2,7,255,1224,200,565,1224
stim,1791,1791,0,103708.829,0.998,0.057,-0.027,-0.013,212,0,339,999,3831,911,308,787,0,0.000,1,0,0.060,0.004,-0.040,0.020,0.040,-0.055,-0.114,0.995,-0.004,-0.002,-0.002,0.000,0.000,0.000,0.000,0,2,0,2,7,255,1224,200,570,1224
stim,1791,1791,0,103713.829,0.998,0.057,-0.027,-0.013,213,0,351,1013,3847,923,315,789,0,0.000,1,0,0.049,0.006,0.020,-0.040,-0.020,-0.056,-0.114,0.994,0.000,-0.006,-0.006,0.000,0.000,0.000,0.000,0,2,0,2,7,255,1224,200,575,1224
stim,1791,1791,0,103718.830,0.998,0.057,-0.027,-0.013,218,0,347,1013,3839,919,311,791,0,0.000,1,0,0.049,0.006,0.020,-0.040,-0.020,-0.056,-0.115,0.995,0.000,-0.006,-0.006,0.000,0.000,0.000,0.000,0,2,0,2,7,255,1224,200,580,1224
stim,1791,1791,0,103723.829,0.998,0.057,-0.027,-0.013,219,0,349,1011,3828,923,317,790,0,0.000,1,0,0.060,0.006,-0.040,-0.040,-0.020,-0.056,-0.114,0.995,0.000,-0.006,0.000,0.000,0.000,0.000,0.000,0,2,0,2,7,255,1224,200,585,1224
stim,1791,1791,0,103728.829,0.998,0.057,-0.027,-0.013,215,0,347,1014,3832,919,317,793,0,0.000,1,0,0.035,0.006,0.020,0.020,-0.020,-0.057,-0.114,0.995,0.000,-0.006,0.000,0.000,0.000,0.000,0.000,0,2,0,2,7,255,1224,200,590,1224
stim,1791,1791,0,103733.829,0.998,0.057,-0.027,-0.013,215,0,339,1007,3829,918,316,783,0,0.000,1,0,0.049,0.006,0.020,-0.040,-0.020,-0.056,-0.115,0.995,0.000,-0.006,0.000,0.000,0.000,0.000,0.000,0,2,0,2,7,255,1224,200,595,1224
stim,1792,1792,0,103738.829,0.998,0.057,-0.027,-0.013,213,0,349,1005,3839,921,311,794,0,0.000,1,0,0.049,0.004,0.020,-0.040,-0.020,-0.056,-0.114,0.995,-0.004,-0.002,-0.004,0.000,0.000,0.000,0.000,0,2,0,2,7,255,1224,200,600,1224
stim,1792,1792,0,103743.829,0.998,0.057,-0.027,-0.013,213,0,349,1007,3847,919,312,795,0,0.000,1,0,0.035,0.004,0.020,0.020,-0.020,-0.057,-0.113,0.996,-0.004,-0.002,-0.004,0.000,0.000,0.000,0.000,0,2,0,2,7,255,1224,200,605,1224
stim,1792,1792,0,103748.829,0.998,0.057,-0.027,-0.013,211,0,342,1005,3832,912,315,795,0,0.000,1,0,0.049,0.004,0.020,-0.040,-0.020,-0.055,-0.114,0.996,-0.004,-0.002,0.004,0.000,0.000,0.000,0.000,0,2,0,2,7,255,1224,200,610,1224
stim,1792,1792,0,103753.829,0.998,0.057,-0.027,-0.013,213,0,345,1014,3829,921,317,795,0,0.000,1,0,0.035,0.000,0.020,0.020,-0.020,-0.056,-0.114,0.995,0.000,0.000,0.004,0.000,0.000,0.000,0.000,0,2,0,2,7,255,1224,200,615,1224
stim,1807,1807,0,103758.829,0.998,0.057,-0.027,-0.013,212,0,347,1006,3847,920,312,793,0,0.000,1,0,0.035,0.007,0.020,0.020,-0.020,-0.055,-0.115,0.996,0.006,-0.004,0.004,0.000,0.000,0.000,0.000,0,2,0,2,7,255,1224,200,620,1224
stim,1807,1807,0,103763.829,0.998,0.057,-0.027,-0.013,215,0,347,1012,3835,919,315,789,0,0.000,1,0,0.120,0.000,0.080,-0.040,-0.080,-0.056,-0.113,0.994,0.000,0.000,0.000,0.000,0.000,0.000,0.000,0,2,0,2,7,255,1224,200,625,1224
stim,1823,1823,0,103768.829,0.998,0.057,-0.027,-0.013,212,0,344,1013,3831,920,317,793,0,0.000,1,0,0.060,0.010,-0.040,-0.040,-0.020,-0.056,-0.115,0.996,0.000,-0.010,0.004,0.000,0.000,0.000,0.000,0,2,0,2,7,255,1224,200,630,1224
stim,1823,1823,0,103773.829,0.998,0.057,-0.027,-0.013,215,0,347,1011,3847,923,316,794,0,0.000,1,0,0.049,0.006,-0.040,0.020,-0.020,-0.055,-0.113,0.996,0.000,0.006,0.006,0.000,0.000,0.000,0.000,0,2,0,2,7,255,1224,200,635,1224
stim,1823,1823,0,103778.829,0.998,0.057,-0.027,-0.013,219,0,347,1011,3835,921,311,791,0,0.000,1,0,0.075,0.006,-0.060,0.020,-0.040,-0.057,-0.113,0.996,0.000,0.006,0.008,0.000,0.000,0.000,0.000,0,2,0,2,7,255,1224,200,640,1224
stim,1823,1823,0,103783.829,0.998,0.057,-0.027,-0.013,215,0,343,1002,3834,914,308,787,0,0.000,1,0,0.075,0.006,-0.060,0.020,-0.040,-0.056,-0.115,0.996,0.000,0.006,0.008,0.000,0.000,0.000,0.000,0,2,0,2,7,255,1224,200,645,1224
stim,1823,1823,0,103788.829,0.998,0.057,-0.027,-0.013,214,0,348,1014,3849,923,315,793,0,0.000,1,0,0.082,0.006,-0.060,-0.040,-0.040,-0.056,-0.112,0.995,0.000,0.006,0.004,0.000,0.000,0.000,0.000,0,2,0,2,7,255,1224,200,650,1224
stim,1843,1843,0,103793.829,0.998,0.057,-0.027,-0.013,215,0,339,999,3850,917,311,783,0,0.000,1,0,0.161,0.006,-0.120,-0.040,-0.100,-0.056,-0.114,0.994,0.000,-0.006,-0.002,0.000,0.000,0.000,0.000,0,2,0,2,7,255,1224,200,655,1224
stim,1843,1843,0,103798.829,0.998,0.057,-0.027,-0.013,217,0,345,1006,3827,923,315,791,0,0.000,1,0,0.108,0.004,-0.060,0.080,-0.040,-0.056,-0.113,0.995,0.000,0.004,-0.006,0.000,0.000,0.000,0.000,0,2,0,2,7,255,1224,200,660,1224
stim,1855,1855,0,103803.829,0.998,0.057,-0.027,-0.013,207,0,340,997,3848,911,312,786,0,0.000,1,0,0.075,0.004,-0.060,0.020,-0.040,-0.055,-0.113,0.995,0.000,0.004,-0.006,0.000,0.000,0.000,0.000,0,2,0,2,7,255,1224,200,665,1224
stim,1855,1855,0,103808.829,0.998,0.057,-0.027,-0.013,217,0,345,1003,3827,919,314,795,0,0.000,1,0,0.118,0.004,-0.060,0.020,-0.100,-0.057,-0.114,0.995,0.000,0.004,-0.006,0.000,0.000,0.000,0.000,0,2,0,2,7,255,1224,200,670,1224
stim,1876,1876,0,103813.829,0.998,0.057,-0.027,-0.013,211,0,342,1003,3843,913,311,784,0,0.000,1,0,0.128,0.006,-0.120,0.020,-0.040,-0.055,-0.113,0.996,0.004,0.004,-0.004,0.000,0.000,0.000,0.000,0,2,0,2,7,255,1224,200,675,1224
stim,1877,1877,0,103818.829,0.998,0.057,-0.027,-0.013,215,0,346,1005,3827,921,314,791,0,0.000,1,0,0.075,0.008,-0.060,0.020,-0.040,-0.054,-0.115,0.995,0.006,-0.006,-0.004,0.000,0.000,0.000,0.000,0,2,0,2,7,255,1224,200,680,1224
stim,1877,1877,0,103823.829,0.998,0.057,-0.027,-0.013,216,0,342,1003,3835,915,311,788,0,0.000,1,0,0.150,0.008,-0.120,0.080,-0.040,-0.057,-0.114,0.995,0.006,-0.006,0.000,0.000,0.000,0.000,0.000,0,2,0,2,7,255,1224,200,685,1224
stim,1877,1877,0,103828.829,0.998,0.057,-0.027,-0.013,215,0,344,1003,3832,922,315,791,0,0.000,1,0,0.104,0.010,-0.100,0.020,-0.020,-0.056,-0.115,0.995,0.000,-0.010,-0.004,0.000,0.000,0.000,0.000,0,2,0,2,7,255,1224,200,690,1224
stim,1878,1878,0,103833.829,0.998,0.057,-0.027,-0.013,205,0,340,1000,3835,911,309,783,0,0.000,1,0,0.134,0.006,-0.100,-0.040,-0.080,-0.056,-0.114,0.996,0.000,-0.006,0.000,0.000,0.000,0.000,0.000,0,2,0,2,7,255,1224,200,695,1224
stim,1878,1878,0,103838.829,0.998,0.057,-0.027,-0.013,214,0,349,1006,3836,923,312,790,0,0.000,1,0,0.092,0.000,-0.040,0.080,-0.020,-0.055,-0.114,0.995,0.000,0.000,0.000,0.000,0.000,0.000,0.000,0,2,0,2,7,255,1224,200,700,1224
stim,1909,1909,0,103843.829,0.998,0.057,-0.027,-0.013,212,0,339,1001,3837,917,309,784,0,0.000,1,0,0.049,0.004,-0.040,0.020,-0.020,-0.055,-0.114,0.993,0.004,0.000,0.000,0.000,0.000,0.000,0.000,0,2,0,2,7,255,1224,200,705,1224
stim,1909,1909,0,103848.829,0.998,0.057,-0.027,-0.013,209,0,343,999,3832,909,309,781,0,0.000,1,0,0.130,0.004,-0.100,0.080,-0.020,-0.057,-0.115,0.996,0.004,-0.002,0.000,0.000,0.000,0.000,0.000,0,2,0,2,7,255,1224,200,710,1224
stim,1909,1909,0,103853.829,0.998,0.057,-0.027,-0.013,215,0,344,1001,3831,916,310,781,0,0.000,1,0,0.166,0.002,-0.040,0.080,-0.140,-0.056,-0.114,0.995,0.000,-0.002,0.000,0.000,0.000,0.000,0.000,0,2,0,2,7,255,1224,200,715,1224
stim,1909,1909,0,103858.829,0.998,0.057,-0.027,-0.013,212,0,348,1013,3846,919,313,791,0,0.000,1,0,0.092,0.006,-0.040,0.020,-0.080,-0.056,-0.114,0.996,-0.004,-0.004,0.010,0.000,0.000,0.000,0.000,0,2,0,2,7,255,1224,200,720,1224
stim,1909,1909,0,103863.829,0.998,0.057,-0.027,-0.013,211,0,341,999,3845,916,311,782,0,0.000,1,0,0.035,0.004,0.020,0.020,-0.020,-0.056,-0.114,0.994,0.000,-0.004,0.000,0.000,0.000,0.000,0.000,0,2,0,2,7,255,1224,200,725,1224
stim,1909,1909,0,103868.829,0.998,0.057,-0.027,-0.013,217,0,345,1013,3829,923,315,794,0,0.000,1,0,0.092,0.006,-0.040,0.020,-0.080,-0.057,-0.114,0.996,-0.004,-0.004,0.006,0.000,0.000,0.000,0.000,0,2,0,2,7,255,1224,200,730,1224
stim,1921,1921,0,103873.829,0.998,0.057,-0.027,-0.013,219,0,347,1013,3837,917,311,792,0,0.000,1,0,0.049,0.004,-0.040,0.020,-0.020,-0.056,-0.114,0.995,0.000,-0.004,0.000,0.000,0.000,0.000,0.000,0,2,0,2,7,255,1224,200,735,1224
stim,1921,1921,0,103878.829,0.998,0.057,-0.027,-0.013,212,0,345,1008,3828,919,314,796,0,0.000,1,0,0.146,0.000,-0.120,0.080,-0.020,-0.056,-0.113,0.995,0.000,0.000,0.000,0.000,0.000,0.000,0.000,0,2,0,2,7,255,1224,200,740,1224
stim,1942,1942,0,103883.829,0.998,0.057,-0.027,-0.013,213,0,344,1006,3827,918,315,797,0,0.000,1,0,0.104,0.000,0.020,0.020,-0.100,-0.055,-0.115,0.995,0.000,0.000,0.000,0.000,0.000,0.000,0.000,0,2,0,2,7,255,1224,200,745,1224
stim,1942,1942,0,103888.829,0.998,0.057,-0.027,-0.013,219,0,349,1013,3831,923,315,790,0,0.000,1,0,0.110,0.004,-0.040,0.020,-0.100,-0.056,-0.114,0.995,0.000,-0.004,0.000,0.000,0.000,0.000,0.000,0,2,0,2,7,255,1224,200,750,1224
stim,1942,1942,0,103893.829,0.998,0.057,-0.027,-0.013,215,0,349,1013,3839,921,311,789,0,0.000,1,0,0.049,0.010,-0.040,0.020,-0.020,-0.056,-0.115,0.995,0.000,-0.010,0.000,0.000,0.000,0.000,0.000,0,2,0,2,7,255,1224,200,755,1224
stim,1942,1942,0,103898.829,0.998,0.057,-0.027,-0.013,213,0,351,1011,3848,923,313,791,0,0.000,1,0,0.110,0.004,-0.040,0.020,-0.100,-0.057,-0.113,0.995,0.000,-0.004,0.000,0.000,0.000,0.000,0.000,0,2,0,2,7,255,1224,200,760,1224
stim,1983,1983,0,103903.829,0.998,0.057,-0.027,-0.013,219,0,349,1015,3839,919,315,790,0,0.000,1,0,0.146,0.010,-0.120,0.080,-0.020,-0.056,-0.115,0.995,0.000,-0.010,0.000,0.000,0.000,0.000,0.000,0,2,0,2,7,255,1224,200,765,1224
stim,1983,1983,0,103908.830,0.998,0.057,-0.027,-0.013,213,0,345,1008,3833,922,317,797,0,0.000,1,0,0.049,0.004,-0.040,0.020,-0.020,-0.055,-0.114,0.995,0.000,-0.004,0.000,0.000,0.000,0.000,0.000,0,2,0,2,7,255,1224,200,770,1224
stim,1983,1983,0,103913.829,0.998,0.057,-0.027,-0.013,212,0,348,1013,3835,918,315,788,0,0.000,1,0,0.110,0.004,-0.040,0.020,-0.100,-0.056,-0.114,0.996,0.000,-0.004,0.000,0.000,0.000,0.000,0.000,0,2,0,2,7,255,1224,200,775,1224
stim,1983,1983,0,103918.829,0.998,0.057,-0.027,-0.013,215,0,351,1007,3847,920,313,795,0,0.000,1,0,0.049,0.004,-0.040,0.020,-0.020,-0.057,-0.114,0.995,0.000,-0.004,0.000,0.000,0.000,0.000,0.000,0,2,0,2,7,255,1224,200,780,1224
stim,1983,1983,0,103923.829,0.998,0.057,-0.027,-0.013,217,0,348,1004,3839,923,313,796,0,0.000,1,0,0.123,0.004,-0.120,0.020,-0.020,-0.056,-0.113,0.996,-0.004,0.000,0.004,0.000,0.000,0.000,0.000,0,2,0,2,7,255,1224,200,785,1224
stim,1983,1983,0,103928.829,0.998,0.057,-0.027,-0.013,217,0,345,1003,3823,925,316,787,0,0.000,1,0,0.049,0.009,-0.040,0.020,-0.020,-0.057,-0.114,0.995,-0.008,-0.004,0.000,0.000,0.000,0.000,0.000,0,2,0,2,7,255,1224,200,790,1224
stim,1999,1999,0,103933.829,0.998,0.057,-0.027,-0.013,218,0,347,1011,3849,924,313,793,0,0.000,1,0,0.098,0.009,-0.040,-0.040,-0.080,-0.057,-0.113,0.995,-0.008,0.004,0.000,0.000,0.000,0.000,0.000,0,2,0,2,7,255,1224,200,795,1224
stim,1999,1999,0,103938.829,0.998,0.057,-0.027,-0.013,217,0,353,1009,3845,927,313,793,0,0.000,1,0,0.092,0.008,-0.040,0.020,-0.080,-0.056,-0.114,0.995,-0.008,0.000,0.000,0.000,0.000,0.000,0.000,0,2,0,2,7,255,1224,200,800,1224
stim,1999,1999,0,103943.829,0.998,0.057,-0.027,-0.013,211,0,345,1015,3833,921,317,795,0,0.000,1,0,0.049,0.008,-0.040,0.020,-0.020,-0.057,-0.115,0.996,-0.008,0.000,0.000,0.000,0.000,0.000,0.000,0,2,0,2,7,255,1224,200,805,1224
stim,1999,1999,0,103948.829,0.998,0.057,-0.027,-0.013,214,0,344,1007,3820,925,313,797,0,0.000,1,0,0.049,0.004,-0.040,0.020,-0.020,-0.056,-0.114,0.995,-0.004,0.000,0.000,0.000,0.000,0.000,0.000,0,2,0,2,7,255,1224,200,810,1224
stim,1999,1999,0,103953.829,0.998,0.057,-0.027,-0.013,220,0,349,1015,3839,919,313,791,0,0.000,1,0,0.060,0.007,-0.040,-0.040,-0.020,-0.056,-0.114,0.995,-0.004,-0.006,-0.004,0.000,0.000,0.000,0.000,0,2,0,2,7,255,1224,200,815,1224
stim,1999,1999,0,103958.830,0.998,0.057,-0.027,-0.013,216,0,349,1013,3835,923,314,787,0,0.000,1,0,0.049,0.000,-0.040,0.020,-0.020,-0.055,-0.114,0.995,0.000,0.000,-0.004,0.000,0.000,0.000,0.000,0,2,0,2,7,255,1224,200,820,1224
stim,2015,2015,0,103963.829,0.998,0.057,-0.027,-0.013,219,0,347,1015,3837,924,315,793,0,0.000,1,0,0.104,0.007,0.020,-0.100,-0.020,-0.056,-0.115,0.995,-0.004,-0.006,0.000,0.000,0.000,0.000,0.000,0,2,0,2,7,255,1224,200,825,1224
stim,2015,2015,0,103968.829,0.998,0.057,-0.027,-0.013,211,0,341,998,3827,913,309,781,0,0.000,1,0,0.110,0.000,-0.100,-0.040,-0.020,-0.056,-0.114,0.994,0.000,0.000,0.000,0.000,0.000,0.000,0.000,0,2,0,2,7,255,1224,200,830,1224
stim,2015,2015,0,103973.829,0.998,0.057,-0.027,-0.013,211,0,345,1008,3832,918,316,795,0,0.000,1,0,0.060,0.006,-0.040,-0.040,-0.020,-0.057,-0.114,0.995,-0.004,-0.004,0.000,0.000,0.000,0.000,0.000,0,2,0,2,7,255,1224,200,835,1224
stim,2015,2015,0,103978.829,0.998,0.057,-0.027,-0.013,217,0,353,1007,3847,925,313,796,0,0.000,1,0,0.075,0.014,-0.060,0.020,-0.040,-0.057,-0.112,0.996,-0.014,0.000,0.000,0.000,0.000,0.000,0.000,0,2,0,2,7,255,1224,200,840,1224
stim,2031,2031,0,103983.829,0.998,0.057,-0.027,-0.013,219,0,345,1005,3830,925,312,797,0,0.000,1,0,0.082,0.015,-0.060,-0.040,-0.040,-0.057,-0.115,0.995,-0.014,-0.004,0.000,0.000,0.000,0.000,0.000,0,2,0,2,7,255,1224,200,845,1224
stim,2031,2031,0,103988.829,0.998,0.057,-0.027,-0.013,215,0,345,1013,3835,921,318,793,0,0.000,1,0,0.082,0.009,-0.060,-0.040,-0.040,-0.055,-0.114,0.996,-0.008,-0.004,0.004,0.000,0.000,0.000,0.000,0,2,0,2,7,255,1224,200,850,1224
stim,2048,2048,0,103993.829,0.998,0.057,-0.027,-0.013,219,0,349,1011,3837,929,314,791,0,0.000,1,0,0.075,0.007,-0.060,0.020,-0.040,-0.055,-0.113,0.995,0.006,-0.004,0.000,0.000,0.000,0.000,0.000,0,2,0,2,7,255,1224,200,855,1224
stim,2048,2048,0,103998.829,0.998,0.057,-0.027,-0.013,215,0,347,1007,3835,925,315,795,0,0.000,1,0,0.075,0.007,-0.060,0.020,-0.040,-0.055,-0.115,0.996,0.006,-0.004,0.004,0.000,0.000,0.000,0.000,0,2,0,2,7,255,1224,200,860,1224
stim,2048,2048,0,104003.829,0.998,0.057,-0.027,-0.013,213,0,345,1007,3829,918,317,797,0,0.000,1,0,0.049,0.012,0.020,0.020,-0.040,-0.056,-0.113,0.995,0.006,0.010,-0.002,0.000,0.000,0.000,0.000,0,2,0,2,7,255,1224,200,865,1224
stim,2048,2048,0,104008.829,0.998,0.057,-0.027,-0.013,219,0,349,1005,3835,920,315,795,0,0.000,1,0,0.157,0.010,-0.120,0.020,-0.100,-0.057,-0.115,0.994,0.000,-0.010,-0.006,0.000,0.000,0.000,0.000,0,2,0,2,7,255,1224,200,870,1224
stim,2079,2079,0,104013.829,0.998,0.057,-0.027,-0.013,219,0,349,1007,3837,925,313,792,0,0.000,1,0,0.123,0.004,-0.120,0.020,0.020,-0.056,-0.113,0.995,0.000,0.004,-0.006,0.000,0.000,0.000,0.000,0,2,0,2,7,255,1224,200,875,1224
stim,2080,2080,0,104018.829,0.998,0.057,-0.027,-0.013,219,0,346,1007,3833,920,317,788,0,0.000,1,0,0.075,0.011,-0.060,0.020,-0.040,-0.056,-0.115,0.995,-0.004,-0.010,-0.002,0.000,0.000,0.000,0.000,0,2,0,2,7,255,1224,200,880,1224
stim,2080,2080,0,104023.829,0.998,0.057,-0.027,-0.013,211,0,349,1017,3835,921,314,793,0,0.000,1,0,0.075,0.000,-0.060,0.020,-0.040,-0.055,-0.114,0.995,0.000,0.000,0.000,0.000,0.000,0.000,0.000,0,2,0,2,7,255,1224,200,885,1224
stim,2080,2080,0,104028.829,0.998,0.057,-0.027,-0.013,211,0,349,1007,3839,923,313,798,0,0.000,1,0,0.108,0.012,-0.060,0.080,-0.040,-0.055,-0.115,0.995,0.006,-0.010,0.000,0.000,0.000,0.000,0.000,0,2,0,2,7,255,1224,200,890,1224
stim,2080,2080,0,104033.829,0.998,0.057,-0.027,-0.013,215,0,351,1014,3833,925,317,793,0,0.000,1,0,0.075,0.006,-0.060,0.020,-0.040,-0.057,-0.114,0.996,0.006,0.000,0.000,0.000,0.000,0.000,0.000,0,2,0,2,7,255,1224,200,895,1224
stim,2080,2080,0,104038.829,0.998,0.057,-0.027,-0.013,219,0,349,1013,3834,925,317,790,0,0.000,1,0,0.075,0.009,-0.060,0.020,-0.040,-0.057,-0.114,0.996,-0.008,-0.004,0.010,0.000,0.000,0.000,0.000,0,2,0,2,7,255,1224,200,900,1224
stim,2095,2095,0,104043.830,0.998,0.057,-0.027,-0.013,217,0,349,1005,3845,923,313,792,0,0.000,1,0,0.075,0.009,-0.060,0.020,-0.040,-0.057,-0.114,0.995,-0.008,-0.004,0.010,0.000,0.000,0.000,0.000,0,2,0,2,7,255,1224,200,905,1224
stim,2095,2095,0,104048.829,0.998,0.057,-0.027,-0.013,215,0,343,1005,3827,923,317,795,0,0.000,1,0,0.075,0.009,-0.060,0.020,-0.040,-0.056,-0.114,0.996,-0.008,-0.004,0.010,0.000,0.000,0.000,0.000,0,2,0,2,7,255,1224,200,910,1224
stim,2112,2112,0,104053.829,0.998,0.057,-0.027,-0.013,211,0,344,1008,3827,925,316,797,0,0.000,1,0,0.128,0.004,-0.120,0.020,-0.040,-0.056,-0.113,0.996,0.002,-0.004,0.004,0.000,0.000,0.000,0.000,0,2,0,2,7,255,1224,200,915,1224
stim,2112,2112,0,104058.829,0.998,0.057,-0.027,-0.013,211,0,349,1013,3833,923,315,792,0,0.000,1,0,0.128,0.006,-0.120,0.020,-0.040,-0.056,-0.113,0.996,0.002,0.006,0.004,0.000,0.000,0.000,0.000,0,2,0,2,7,255,1224,200,920,1224
stim,2112,2112,0,104063.829,0.998,0.057,-0.027,-0.013,212,0,349,1005,3836,923,312,795,0,0.000,1,0,0.123,0.007,-0.060,-0.040,-0.100,-0.057,-0.116,0.996,-0.004,0.006,0.004,0.000,0.000,0.000,0.000,0,2,0,2,7,255,1224,200,925,1224
stim,2112,2112,0,104068.829,0.998,0.057,-0.027,-0.013,211,0,344,1005,3850,921,313,795,0,0.000,1,0,0.082,0.010,-0.060,-0.040,-0.040,-0.057,-0.113,0.996,-0.008,0.006,0.006,0.000,0.000,0.000,0.000,0,2,0,2,7,255,1224,200,930,1224
stim,2127,2127,0,104073.829,0.998,0.057,-0.027,-0.013,219,0,350,1003,3835,921,315,792,0,0.000,1,0,0.161,0.011,-0.120,-0.040,-0.100,-0.057,-0.115,0.996,-0.008,-0.008,0.006,0.000,0.000,0.000,0.000,0,2,0,2,7,255,1224,200,935,1224
stim,2127,2127,0,104078.829,0.998,0.057,-0.027,-0.013,218,0,347,1004,3833,919,317,793,0,0.000,1,0,0.123,0.008,-0.060,-0.040,-0.100,-0.056,-0.114,0.996,-0.008,0.002,0.008,0.000,0.000,0.000,0.000,0,2,0,2,7,255,1224,200,940,1224
stim,2143,2143,0,104083.829,0.998,0.057,-0.027,-0.013,216,0,351,1006,3831,925,313,795,0,0.000,1,0,0.175,0.002,-0.060,-0.040,-0.160,-0.055,-0.114,0.995,-0.002,0.000,0.006,0.000,0.000,0.000,0.000,0,2,0,2,7,255,1224,200,945,1224
stim,2143,2143,0,104088.829,0.998,0.057,-0.027,-0.013,219,0,351,1005,3851,923,312,792,0,0.000,1,0,0.161,0.006,-0.120,-0.040,-0.100,-0.055,-0.113,0.994,0.006,0.002,-0.002,0.000,0.000,0.000,0.000,0,2,0,2,7,255,1224,200,950,1224
stim,2143,2143,0,104093.829,0.998,0.057,-0.027,-0.013,209,0,346,1011,3837,919,317,791,0,0.000,1,0,0.157,0.010,-0.120,0.020,-0.100,-0.054,-0.114,0.995,0.010,0.000,-0.006,0.000,0.000,0.000,0.000,0,2,0,2,7,255,1224,200,955,1224
stim,2143,2143,0,104098.829,0.998,0.057,-0.027,-0.013,211,0,345,1012,3833,924,319,797,0,0.000,1,0,0.118,0.010,-0.060,0.020,-0.100,-0.055,-0.114,0.995,0.010,0.000,-0.006,0.000,0.000,0.000,0.000,0,2,0,2,7,255,1224,200,960,1224
stim,2182,2182,0,104103.830,0.998,0.057,-0.027,-0.013,219,0,349,1011,3839,921,313,791,0,0.000,1,0,0.075,0.010,-0.060,0.020,-0.040,-0.055,-0.114,0.996,0.010,0.000,-0.002,0.000,0.000,0.000,0.000,0,2,0,2,7,255,1224,200,965,1224
stim,2182,2182,0,104108.829,0.998,0.057,-0.027,-0.013,211,0,340,999,3827,921,315,787,0,0.000,1,0,0.075,0.006,-0.060,0.020,-0.040,-0.056,-0.115,0.995,0.006,0.000,-0.002,0.000,0.000,0.000,0.000,0,2,0,2,7,255,1224,200,970,1224
stim,2183,2183,0,104113.829,0.998,0.057,-0.027,-0.013,219,0,347,1003,3843,921,312,797,0,0.000,1,0,0.123,0.012,-0.120,0.020,0.020,-0.055,-0.115,0.995,0.006,-0.010,-0.004,0.000,0.000,0.000,0.000,0,2,0,2,7,255,1224,200,975,1224
stim,2183,2183,0,104118.829,0.998,0.057,-0.027,-0.013,216,0,350,1013,3844,923,312,794,0,0.000,1,0,0.082,0.014,-0.060,-0.040,-0.040,-0.056,-0.116,0.994,0.002,-0.014,-0.004,0.000,0.000,0.000,0.000,0,2,0,2,7,255,1224,200,980,1224
stim,2183,2183,0,104123.829,0.998,0.057,-0.027,-0.013,218,0,348,1003,3837,921,325,788,0,0.000,1,0,0.118,0.011,-0.060,0.020,-0.100,-0.056,-0.114,0.995,-0.004,-0.010,-0.004,0.000,0.000,0.000,0.000,0,2,0,2,7,255,1224,200,985,1224
stim,2183,2183,0,104128.829,0.998,0.057,-0.027,-0.013,217,0,352,1007,3834,923,322,793,0,0.000,1,0,0.075,0.011,-0.060,0.020,-0.040,-0.055,-0.115,0.994,-0.004,-0.010,-0.008,0.000,0.000,0.000,0.000,0,2,0,2,7,255,1224,200,990,1224
stim,2191,2191,0,104133.829,0.998,0.057,-0.027,-0.013,211,0,347,1005,3845,923,315,797,0,0.000,1,0,0.102,0.004,0.000,0.020,-0.100,-0.057,-0.113,0.995,-0.004,0.000,-0.002,0.000,0.000,0.000,0.000,0,2,0,2,7,255,1224,200,995,1224
stim,2191,2191,0,104138.830,0.998,0.057,-0.027,-0.013,215,0,353,1003,3837,921,313,791,0,0.000,1,0,0.075,0.006,-0.060,0.020,-0.040,-0.056,-0.114,0.995,-0.004,-0.004,-0.004,0.000,0.000,0.000,0.000,0,2,0,2,7,255,1224,200,1000,1224
stim,2191,2191,0,104143.829,0.998,0.057,-0.027,-0.013,219,0,349,1013,3835,925,311,791,0,0.000,1,0,0.102,0.007,0.000,0.020,-0.100,-0.056,-0.113,0.995,-0.004,0.006,-0.002,0.000,0.000,0.000,0.000,0,2,0,2,7,255,1224,200,1005,1224
stim,2191,2191,0,104148.829,0.998,0.057,-0.027,-0.013,209,0,341,998,3827,915,308,783,0,0.000,1,0,0.118,0.006,-0.060,0.020,-0.100,-0.057,-0.115,0.996,-0.004,-0.004,-0.002,0.000,0.000,0.000,0.000,0,2,0,2,7,255,1224,200,1010,1224
stim,2207,2207,0,104153.829,0.998,0.057,-0.027,-0.013,217,0,349,1013,3835,925,312,793,0,0.000,1,0,0.118,0.000,-0.060,0.020,-0.100,-0.056,-0.114,0.995,0.000,0.000,0.000,0.000,0.000,0.000,0.000,0,2,0,2,7,255,1224,200,1015,1224
stim,2207,2207,0,104158.829,0.998,0.057,-0.027,-0.013,213,0,345,1005,3833,921,317,797,0,0.000,1,0,0.118,0.008,-0.060,0.020,-0.100,-0.057,-0.114,0.996,-0.008,-0.002,0.006,0.000,0.000,0.000,0.000,0,2,0,2,7,255,1224,200,1020,1224
stim,2223,2223,1,104163.829,0.998,0.057,-0.027,-0.013,212,0,344,1013,3823,911,316,796,0,0.000,1,0,0.118,0.000,-0.060,0.020,-0.100,-0.056,-0.114,0.994,0.000,0.000,0.000,0.000,0.000,0.000,0.000,0,2,1,2,7,255,1224,200,1025,1224
stim,2223,2223,1,104168.829,0.998,0.057,-0.027,-0.013,213,0,349,1003,3848,920,313,789,0,0.000,1,0,0.118,0.000,-0.060,0.020,-0.100,-0.055,-0.113,0.994,0.000,0.000,-0.010,0.000,0.000,0.000,0.000,0,2,1,2,7,255,1224,200,1030,1224
stim,2223,2223,1,104173.829,0.998,0.057,-0.027,-0.013,214,0,344,1005,3807,920,312,789,0,0.000,1,0,0.157,0.004,-0.120,0.020,-0.100,-0.055,-0.114,0.995,0.004,0.000,-0.010,0.000,0.000,0.000,0.000,0,2,1,2,7,255,1224,200,1035,1224
stim,2223,2223,1,104178.829,0.998,0.057,-0.027,-0.013,210,0,344,1001,3840,925,313,789,0,0.000,1,0,0.133,0.006,-0.120,-0.040,-0.040,-0.054,-0.114,0.995,0.006,0.002,-0.004,0.000,0.000,0.000,0.000,0,2,1,2,7,255,1224,200,1040,1224
stim,2242,2242,1,104183.829,0.998,0.057,-0.027,-0.013,215,0,347,998,3832,918,313,789,0,0.000,1,0,0.128,0.016,-0.120,0.020,-0.040,-0.054,-0.114,0.995,0.016,-0.004,-0.002,0.000,0.000,0.000,0.000,0,2,1,2,7,255,1224,200,1045,1224
stim,2242,2242,1,104188.829,0.998,0.057,-0.027,-0.013,215,0,340,1002,3845,921,311,788,0,0.000,1,0,0.049,0.016,0.020,0.020,-0.040,-0.056,-0.113,0.995,0.016,0.002,-0.002,0.000,0.000,0.000,0.000,0,2,1,2,7,255,1224,200,1050,1224
stim,2242,2242,1,104193.829,0.998,0.057,-0.027,-0.013,211,0,343,1002,3835,921,311,788,0,0.000,1,0,0.166,0.004,-0.040,0.020,0.160,-0.056,-0.114,0.995,-0.004,0.000,-0.004,0.000,0.000,0.000,0.000,0,2,1,2,7,255,1224,200,1055,1224
stim,2242,2242,1,104198.829,0.998,0.057,-0.027,-0.013,211,0,345,1003,3837,921,311,792,0,0.000,1,0,0.343,0.009,0.020,-0.040,0.340,-0.058,-0.113,0.997,-0.004,0.008,-0.004,0.000,0.000,0.000,0.000,0,2,1,2,7,255,1224,200,1060,1224
stim,2276,2276,1,104203.829,0.998,0.057,-0.027,-0.013,217,0,348,1004,3839,923,315,792,0,0.000,1,0,0.450,0.008,-0.420,0.020,-0.160,-0.057,-0.115,0.994,-0.008,0.000,-0.004,0.000,0.000,0.000,0.000,0,2,1,2,7,255,1224,200,1065,1224
stim,2276,2276,1,104208.829,0.998,0.057,-0.027,-0.013,208,0,344,1002,3833,916,311,795,0,0.000,1,0,0.995,0.016,-0.240,0.220,-0.940,-0.051,-0.119,0.990,-0.008,-0.014,-0.008,0.000,0.000,0.000,0.000,0,2,1,2,7,255,1224,200,1070,1224
stim,2276,2276,1,104213.829,0.998,0.057,-0.027,-0.013,210,0,343,1011,3831,923,311,789,0,0.000,1,0,1.328,0.015,1.040,-0.100,0.820,-0.055,-0.113,0.996,0.006,-0.014,-0.008,0.000,0.000,0.000,0.000,0,2,1,2,7,255,1224,200,1075,1224
stim,2277,2277,1,104218.829,0.998,0.057,-0.027,-0.013,213,0,341,1000,3820,915,314,787,0,0.000,1,0,1.173,0.012,0.080,-0.340,1.120,-0.059,-0.106,1.010,0.006,0.010,0.004,0.000,0.000,0.000,0.000,0,2,1,2,7,255,1224,200,1080,1224
stim,2277,2277,1,104223.829,0.998,0.057,-0.027,-0.013,210,0,344,1010,3835,917,311,792,0,0.000,1,0,3.026,0.024,-2.000,0.700,-2.160,-0.060,-0.131,0.986,-0.022,0.010,0.004,0.000,0.000,0.000,0.000,0,2,1,2,7,255,1224,200,1085,1224
stim,2277,2277,1,104228.829,0.998,0.057,-0.027,-0.013,212,0,345,1003,3835,921,312,795,0,0.000,1,0,3.067,0.095,2.080,-0.820,2.100,-0.057,-0.093,0.989,-0.022,0.092,-0.070,0.000,0.000,0.000,0.000,0,2,1,2,7,255,1224,200,1090,1224
stim,2277,2277,1,104233.829,0.998,0.057,-0.027,-0.013,207,0,342,1006,3833,920,309,793,0,0.000,1,0,3.025,0.113,-1.260,0.700,-2.660,-0.048,-0.127,1.008,-0.018,-0.112,-0.070,0.000,0.000,0.000,0.000,0,2,1,2,7,255,1224,200,1095,1224
stim,2308,2308,1,104238.829,0.998,0.057,-0.027,-0.013,218,0,348,1006,3837,920,312,795,0,0.000,1,0,3.027,0.020,1.480,-0.460,2.600,-0.064,-0.113,0.981,-0.018,-0.008,-0.086,0.000,0.000,0.000,0.000,0,2,1,2,7,255,1224,200,1100,1224
stim,2308,2308,1,104243.829,0.998,0.057,-0.027,-0.013,205,0,344,1005,3838,915,311,793,0,0.000,1,0,2.838,0.074,-1.820,0.280,-2.160,-0.049,-0.112,1.017,0.074,-0.008,0.138,0.000,0.000,0.000,0.000,0,2,1,2,7,255,1224,200,1105,1224
stim,2308,2308,1,104248.829,0.998,0.057,-0.027,-0.013,222,0,347,1004,3847,921,313,788,0,0.000,1,0,2.580,0.097,1.180,-0.580,2.220,-0.063,-0.104,0.969,-0.088,0.040,-0.130,0.000,0.000,0.000,0.000,0,2,1,2,7,255,1224,200,1110,1224
stim,2308,2308,1,104253.829,0.998,0.057,-0.027,-0.013,206,0,346,1003,3826,921,311,791,0,0.000,1,0,2.928,0.054,-0.900,1.380,-2.420,-0.054,-0.133,1.015,0.036,0.040,0.202,0.000,0.000,0.000,0.000,0,2,1,2,7,255,1224,200,1115,1224
stim,2308,2308,1,104258.829,0.998,0.057,-0.027,-0.013,219,0,345,1003,3835,920,312,790,0,0.000,1,0,2.799,0.077,0.800,-2.300,1.380,-0.051,-0.095,0.989,0.036,0.068,-0.082,0.000,0.000,0.000,0.000,0,2,1,2,7,255,1224,200,1120,1224
stim,2308,2308,1,104263.829,0.998,0.057,-0.027,-0.013,219,0,343,1003,3837,925,314,790,0,0.000,1,0,2.702,0.099,-0.420,2.660,-0.220,-0.064,-0.122,0.987,0.036,-0.092,-0.068,0.000,0.000,0.000,0.000,0,2,1,2,7,255,1224,200,1125,1224
stim,2309,2309,1,104268.829,0.998,0.057,-0.027,-0.013,208,0,347,1003,3819,920,309,787,0,0.000,1,0,2.072,0.058,0.320,-1.980,-0.520,-0.049,-0.112,1.019,0.040,0.042,-0.068,0.000,0.000,0.000,0.000,0,2,1,2,7,255,1224,200,1130,1224
stim,2309,2309,1,104273.829,0.998,0.057,-0.027,-0.013,203,0,343,1007,3829,921,309,791,0,0.000,1,0,0.651,0.034,-0.480,0.280,0.340,-0.057,-0.109,0.974,-0.026,0.022,-0.068,0.000,0.000,0.000,0.000,0,2,1,2,7,255,1224,200,1135,1224
stim,2341,2341,1,104278.829,0.998,0.057,-0.027,-0.013,219,0,349,1003,3849,919,317,795,0,0.000,1,0,1.113,0.026,-0.300,1.060,0.160,-0.058,-0.120,0.999,-0.014,0.022,0.042,0.000,0.000,0.000,0.000,0,2,1,2,7,255,1224,200,1140,1224
stim,2341,2341,1,104283.829,0.998,0.057,-0.027,-0.013,217,0,344,1004,3832,923,315,789,0,0.000,1,0,1.218,0.015,0.260,-1.140,-0.340,-0.057,-0.114,1.002,-0.014,0.004,0.042,0.000,0.000,0.000,0.000,0,2,1,2,7,255,1224,200,1145,1224
stim,2341,2341,1,104288.829,0.998,0.057,-0.027,-0.013,207,0,343,1009,3833,920,312,791,0,0.000,1,0,0.546,0.015,0.440,0.280,-0.160,-0.057,-0.111,0.986,-0.014,0.004,0.042,0.000,0.000,0.000,0.000,0,2,1,2,7,255,1224,200,1150,1224
stim,2341,2341,1,104293.829,0.998,0.057,-0.027,-0.013,201,0,345,1003,3839,923,313,791,0,0.000,1,0,0.551,0.013,-0.300,0.460,-0.040,-0.052,-0.113,0.997,-0.004,0.012,0.016,0.000,0.000,0.000,0.000,0,2,1,2,7,255,1224,200,1155,1224
stim,2342,2342,1,104298.829,0.998,0.057,-0.027,-0.013,203,0,342,1005,3827,923,311,791,0,0.000,1,0,0.676,0.036,-0.600,-0.220,0.220,-0.052,-0.114,0.998,0.034,0.012,0.016,0.000,0.000,0.000,0.000,0,2,1,2,7,255,1224,200,1160,1224
stim,2342,2342,1,104303.829,0.998,0.057,-0.027,-0.013,207,0,341,1003,3831,921,314,791,0,0.000,1,0,0.291,0.034,-0.240,-0.040,0.160,-0.057,-0.113,0.993,0.034,0.004,0.016,0.000,0.000,0.000,0.000,0,2,1,2,7,255,1224,200,1165,1224
stim,2386,2386,1,104308.830,0.998,0.057,-0.027,-0.013,212,0,343,1006,3828,917,313,789,0,0.000,1,0,0.049,0.016,0.020,0.020,-0.040,-0.059,-0.115,0.996,-0.016,0.002,0.008,0.000,0.000,0.000,0.000,0,2,1,2,7,255,1224,200,1170,1224
stim,2386,2386,1,104313.829,0.998,0.057,-0.027,-0.013,209,0,345,1001,3825,918,312,797,0,0.000,1,0,0.264,0.020,0.140,-0.040,-0.220,-0.058,-0.116,0.995,-0.018,-0.008,-0.002,0.000,0.000,0.000,0.000,0,2,1,2,7,255,1224,200,1175,1224
stim,2386,2386,1,104318.829,0.998,0.057,-0.027,-0.013,213,0,339,1001,3829,915,315,788,0,0.000,1,0,0.235,0.020,0.020,0.080,-0.220,-0.057,-0.114,0.995,-0.018,-0.008,-0.002,0.000,0.000,0.000,0.000,0,2,1,2,7,255,1224,200,1180,1224
stim,2386,2386,1,104323.829,0.998,0.057,-0.027,-0.013,211,0,341,1000,3821,923,313,789,0,0.000,1,0,0.172,0.015,-0.060,0.020,-0.160,-0.055,-0.113,0.995,-0.014,-0.004,-0.004,0.000,0.000,0.000,0.000,0,2,1,2,7,255,1224,200,1185,1224
stim,2407,2407,1,104328.829,0.998,0.057,-0.027,-0.013,205,0,346,1005,3831,922,312,793,0,0.000,1,0,0.251,0.000,-0.120,0.020,-0.220,-0.056,-0.114,0.995,0.000,0.000,-0.004,0.000,0.000,0.000,0.000,0,2,1,2,7,255,1224,200,1190,1224
stim,2407,2407,1,104333.829,0.998,0.057,-0.027,-0.013,204,0,342,1007,3827,921,311,793,0,0.000,1,0,0.263,0.008,-0.120,0.080,-0.220,-0.055,-0.113,0.995,0.006,0.006,-0.004,0.000,0.000,0.000,0.000,0,2,1,2,7,255,1224,200,1195,1224
stim,2407,2407,1,104338.829,0.998,0.057,-0.027,-0.013,211,0,339,1003,3825,921,312,788,0,0.000,1,0,0.242,0.010,-0.180,0.020,-0.160,-0.055,-0.114,0.996,0.010,0.000,-0.002,0.000,0.000,0.000,0.000,0,2,1,2,7,255,1224,200,1200,1224
stim,2407,2407,1,104343.829,0.998,0.057,-0.027,-0.013,203,0,340,1001,3835,923,315,791,0,0.000,1,0,0.242,0.010,-0.180,0.020,-0.160,-0.055,-0.114,0.995,0.010,0.000,0.000,0.000,0.000,0.000,0.000,0,2,1,2,7,255,1224,200,1205,1224
stim,2407,2407,1,104348.829,0.998,0.057,-0.027,-0.013,204,0,341,1001,3821,925,309,792,0,0.000,1,0,0.221,0.006,-0.180,0.080,-0.100,-0.056,-0.116,0.996,0.006,-0.002,0.008,0.000,0.000,0.000,0.000,0,2,1,2,7,255,1224,200,1210,1224
stim,2407,2407,1,104353.829,0.998,0.057,-0.027,-0.013,203,0,342,1011,3833,924,315,793,0,0.000,1,0,0.128,0.009,-0.120,0.020,-0.040,-0.057,-0.115,0.996,-0.004,-0.008,0.006,0.000,0.000,0.000,0.000,0,2,1,2,7,255,1224,200,1215,1224
stim,2407,2407,1,104358.829,0.998,0.057,-0.027,-0.013,205,0,339,1007,3840,923,311,782,0,0.000,1,0,0.150,0.014,-0.120,0.080,-0.040,-0.057,-0.115,0.996,-0.008,-0.012,0.006,0.000,0.000,0.000,0.000,0,2,1,2,7,255,1224,200,1220,1224
stim,2407,2407,0,104363.829,0.998,0.057,-0.027,-0.013,205,0,337,1005,3832,925,311,782,0,0.000,1,0,0.185,0.011,-0.180,0.020,-0.040,-0.056,-0.113,0.996,-0.008,-0.008,0.006,0.000,0.000,0.000,0.000,0,2,0,2,7,255,1224,200,1,1224
stim,2407,2407,0,104368.829,0.998,0.057,-0.027,-0.013,205,0,335,1006,3822,917,309,780,0,0.000,1,0,0.185,0.006,-0.180,0.020,-0.040,-0.055,-0.112,0.995,0.002,0.006,0.006,0.000,0.000,0.000,0.000,0,2,0,2,7,255,1224,200,6,1224
stim,2415,2415,0,104373.829,0.998,0.057,-0.027,-0.013,205,0,332,1003,3863,915,312,779,0,0.000,1,0,0.185,0.008,-0.180,0.020,-0.040,-0.055,-0.113,0.995,0.006,0.006,-0.006,0.000,0.000,0.000,0.000,0,2,0,2,7,255,1224,200,11,1224
stim,2431,2431,0,104378.829,0.998,0.057,-0.027,-0.013,203,0,341,1006,3839,921,311,782,0,0.000,1,0,0.207,0.008,-0.180,0.020,-0.100,-0.056,-0.114,0.995,0.006,0.006,-0.006,0.000,0.000,0.000,0.000,0,2,0,2,7,255,1224,200,16,1224
stim,2431,2431,0,104383.829,0.998,0.057,-0.027,-0.013,206,0,334,997,3819,919,307,787,0,0.000,1,0,0.075,0.000,-0.060,0.020,-0.040,-0.057,-0.114,0.994,0.000,0.000,-0.006,0.000,0.000,0.000,0.000,0,2,0,2,7,255,1224,200,21,1224
stim,2431,2431,0,104388.829,0.998,0.057,-0.027,-0.013,211,0,345,1006,3833,923,314,795,0,0.000,1,0,0.075,0.011,-0.060,0.020,-0.040,-0.058,-0.114,0.995,-0.010,-0.004,-0.002,0.000,0.000,0.000,0.000,0,2,0,2,7,255,1224,200,26,1224
stim,2447,2447,0,104393.829,0.998,0.057,-0.027,-0.013,213,0,339,1005,3847,915,311,788,0,0.000,1,0,0.045,0.018,0.000,0.020,-0.040,-0.058,-0.114,0.996,-0.018,-0.004,-0.002,0.000,0.000,0.000,0.000,0,2,0,2,7,255,1224,200,31,1224
stim,2447,2447,0,104398.829,0.998,0.057,-0.027,-0.013,211,0,343,1007,3827,927,315,797,0,0.000,1,0,0.161,0.018,0.000,0.020,-0.160,-0.057,-0.117,0.997,-0.018,-0.004,0.006,0.000,0.000,0.000,0.000,0,2,0,2,7,255,1224,200,36,1224
stim,2447,2447,0,104403.829,0.998,0.057,-0.027,-0.013,215,0,341,1005,3827,918,313,797,0,0.000,1,0,0.342,0.031,-0.180,0.080,-0.280,-0.058,-0.117,0.996,-0.016,-0.026,0.014,0.000,0.000,0.000,0.000,0,2,0,2,7,255,1224,200,41,1224
stim,2447,2447,0,104408.829,0.998,0.057,-0.027,-0.013,205,0,347,1003,3837,925,312,795,0,0.000,1,0,0.551,0.031,-0.300,-0.040,-0.460,-0.058,-0.117,0.997,-0.016,-0.026,0.018,0.000,0.000,0.000,0.000,0,2,0,2,7,255,1224,200,46,1224
stim,2479,2479,0,104413.829,0.998,0.057,-0.027,-0.013,209,0,345,1008,3843,923,312,797,0,0.000,1,0,0.620,0.029,-0.420,-0.220,-0.400,-0.051,-0.111,0.996,-0.016,-0.024,0.014,0.000,0.000,0.000,0.000,0,2,0,2,7,255,1224,200,51,1224
stim,2479,2479,0,104418.829,0.998,0.057,-0.027,-0.013,211,0,343,1008,3832,925,317,801,0,0.000,1,0,0.279,0.051,-0.060,-0.160,0.220,-0.050,-0.106,0.992,0.044,0.026,0.000,0.000,0.000,0.000,0.000,0,2,0,2,7,255,1224,200,56,1224
stim,2479,2479,0,104423.829,0.998,0.057,-0.027,-0.013,221,0,343,1007,3827,919,315,795,0,0.000,1,0,0.856,0.051,0.440,0.220,0.700,-0.056,-0.110,0.988,0.044,0.026,-0.044,0.000,0.000,0.000,0.000,0,2,0,2,7,255,1224,200,61,1224
stim,2479,2479,0,104428.829,0.998,0.057,-0.027,-0.013,213,0,343,1011,3835,919,323,799,0,0.000,1,0,0.569,0.026,0.320,0.460,-0.100,-0.065,-0.124,0.996,-0.010,0.024,-0.044,0.000,0.000,0.000,0.000,0,2,0,2,7,255,1224,200,66,1224
stim,2479,2479,0,104433.829,0.998,0.057,-0.027,-0.013,214,0,347,1015,3835,927,312,794,0,0.000,1,0,1.197,0.039,-0.420,-0.040,-1.120,-0.055,-0.119,1.005,-0.010,-0.038,0.022,0.000,0.000,0.000,0.000,0,2,0,2,7,255,1224,200,71,1224
stim,2479,2479,0,104438.829,0.998,0.057,-0.027,-0.013,211,0,344,1000,3830,923,315,788,0,0.000,1,0,0.982,0.042,-0.420,-0.820,0.340,-0.040,-0.099,0.997,0.018,-0.038,0.022,0.000,0.000,0.000,0.000,0,2,0,2,7,255,1224,200,76,1224
stim,2496,2496,0,104443.829,0.998,0.057,-0.027,-0.013,211,0,343,1007,3832,923,316,798,0,0.000,1,0,1.996,0.030,0.560,0.460,1.860,-0.063,-0.114,0.979,0.018,-0.024,-0.010,0.000,0.000,0.000,0.000,0,2,0,2,7,255,1224,200,81,1224
stim,2496,2496,0,104448.829,0.998,0.057,-0.027,-0.013,207,0,339,1000,3823,916,309,785,0,0.000,1,0,1.837,0.087,-0.040,1.060,-1.500,-0.078,-0.140,1.002,-0.084,-0.024,-0.010,0.000,0.000,0.000,0.000,0,2,0,2,7,255,1224,200,86,1224
stim,2511,2511,0,104453.829,0.998,0.057,-0.027,-0.013,216,0,349,1014,3849,923,315,799,0,0.000,1,0,2.182,0.087,-0.660,-1.440,-1.500,-0.035,-0.098,1.009,-0.084,-0.024,0.108,0.000,0.000,0.000,0.000,0,2,0,2,7,255,1224,200,91,1224
stim,2511,2511,0,104458.829,0.998,0.057,-0.027,-0.013,216,0,349,1013,3837,923,317,797,0,0.000,1,0,3.406,0.175,0.980,-0.100,3.260,-0.046,-0.095,0.971,0.072,0.160,0.108,0.000,0.000,0.000,0.000,0,2,0,2,7,255,1224,200,96,1224
stim,2511,2511,0,104463.829,0.998,0.057,-0.027,-0.013,223,0,351,1011,3835,923,312,793,0,0.000,1,0,2.558,0.175,-0.360,2.040,-1.500,-0.085,-0.154,1.001,0.072,0.160,0.108,0.000,0.000,0.000,0.000,0,2,0,2,7,255,1224,200,101,1224
stim,2511,2511,0,104468.829,0.998,0.057,-0.027,-0.013,215,0,347,1011,3835,923,311,793,0,0.000,1,0,2.781,0.175,-0.540,-2.420,-1.260,-0.037,-0.092,1.016,0.072,0.160,0.118,0.000,0.000,0.000,0.000,0,2,0,2,7,255,1224,200,106,1224
stim,2527,2527,0,104473.829,0.998,0.057,-0.027,-0.013,215,0,343,1017,3835,923,317,797,0,0.000,1,0,2.955,0.041,1.180,0.760,2.600,-0.055,-0.106,0.965,-0.008,0.040,0.118,0.000,0.000,0.000,0.000,0,2,0,2,7,255,1224,200,111,1224
stim,2527,2527,0,104478.829,0.998,0.057,-0.027,-0.013,219,0,347,1017,3832,920,317,795,0,0.000,1,0,2.840,0.041,-1.340,1.120,-2.240,-0.068,-0.140,1.014,-0.008,0.040,0.164,0.000,0.000,0.000,0.000,0,2,0,2,7,255,1224,200,116,1224
stim,2527,2527,0,104483.829,0.998,0.057,-0.027,-0.013,215,0,348,1011,3831,925,314,796,0,0.000,1,0,2.769,0.041,1.220,-2.040,1.420,-0.046,-0.087,0.994,-0.008,0.040,-0.046,0.000,0.000,0.000,0.000,0,2,0,2,7,255,1224,200,121,1224
stim,2527,2527,0,104488.829,0.998,0.057,-0.027,-0.013,219,0,348,1014,3829,922,317,796,0,0.000,1,0,1.991,0.233,-0.780,1.560,-0.960,-0.058,-0.137,0.988,-0.022,-0.232,-0.044,0.000,0.000,0.000,0.000,0,2,0,2,7,255,1224,200,126,1224
stim,2543,2543,0,104493.829,0.998,0.057,-0.027,-0.013,212,0,349,1017,3835,929,313,795,0,0.000,1,0,1.523,0.187,0.560,-0.940,1.060,-0.059,-0.095,1.001,-0.022,0.186,-0.044,0.000,0.000,0.000,0.000,0,2,0,2,7,255,1224,200,131,1224
stim,2543,2543,0,104498.829,0.998,0.057,-0.027,-0.013,227,0,347,1005,3827,925,313,794,0,0.000,1,0,1.497,0.154,-0.300,0.640,-1.320,-0.049,-0.130,0.997,-0.022,-0.152,0.028,0.000,0.000,0.000,0.000,0,2,0,2,7,255,1224,200,136,1224
stim,2575,2575,0,104503.829,0.998,0.057,-0.027,-0.013,223,0,348,1011,3835,923,313,796,0,0.000,1,0,1.962,0.141,0.380,-0.940,1.680,-0.063,-0.099,0.989,-0.036,0.136,0.028,0.000,0.000,0.000,0.000,0,2,0,2,7,255,1224,200,141,1224
stim,2575,2575,0,104508.830,0.998,0.057,-0.027,-0.013,219,0,344,1013,3827,923,317,801,0,0.000,1,0,2.304,0.135,-0.480,1.180,-1.920,-0.052,-0.128,1.001,0.044,-0.128,0.028,0.000,0.000,0.000,0.000,0,2,0,2,7,255,1224,200,146,1224
stim,2575,2575,0,104513.829,0.998,0.057,-0.027,-0.013,217,0,344,1015,3829,921,317,797,0,0.000,1,0,2.702,0.125,0.800,-1.500,2.100,-0.060,-0.101,0.988,-0.046,0.116,-0.070,0.000,0.000,0.000,0.000,0,2,0,2,7,255,1224,200,151,1224
stim,2575,2575,0,104518.829,0.998,0.057,-0.027,-0.013,222,0,345,1013,3827,930,317,795,0,0.000,1,0,2.605,0.093,-0.980,1.380,-1.980,-0.050,-0.124,1.003,0.044,-0.082,0.074,0.000,0.000,0.000,0.000,0,2,0,2,7,255,1224,200,156,1224
stim,2575,2575,0,104523.829,0.998,0.057,-0.027,-0.013,219,0,349,1015,3848,927,315,795,0,0.000,1,0,2.069,0.051,0.920,-1.000,1.560,-0.062,-0.110,0.986,-0.046,0.022,-0.080,0.000,0.000,0.000,0.000,0,2,0,2,7,255,1224,200,161,1224
stim,2575,2575,0,104528.829,0.998,0.057,-0.027,-0.013,219,0,344,1004,3832,921,319,788,0,0.000,1,0,1.038,0.062,-0.480,0.520,-0.760,-0.050,-0.111,1.010,0.058,0.022,0.088,0.000,0.000,0.000,0.000,0,2,0,2,7,255,1224,200,166,1224
stim,2609,2609,0,104533.829,0.998,0.057,-0.027,-0.013,221,0,349,1015,3833,923,323,797,0,0.000,1,0,0.550,0.073,-0.300,0.020,-0.460,-0.063,-0.125,0.979,-0.070,0.022,-0.092,0.000,0.000,0.000,0.000,0,2,0,2,7,255,1224,200,171,1224
stim,2609,2609,0,104538.829,0.998,0.057,-0.027,-0.013,221,0,349,1012,3848,925,316,799,0,0.000,1,0,2.026,0.075,1.100,-0.520,1.620,-0.049,-0.098,1.013,0.058,0.048,0.138,0.000,0.000,0.000,0.000,0,2,0,2,7,255,1224,200,176,1224
stim,2609,2609,0,104543.829,0.998,0.057,-0.027,-0.013,221,0,347,1016,3851,925,317,794,0,0.000,1,0,3.066,0.141,-1.880,0.760,-2.300,-0.061,-0.128,0.985,-0.054,-0.130,-0.082,0.000,0.000,0.000,0.000,0,2,0,2,7,255,1224,200,181,1224
