condition_phase,condition_phase_elapsed_ms,condition_elapsed_ms,is_stimulation_on,t_ms,R_q0,R_q1,R_q2,R_q3,R_heel1,R_mid1,R_fore1,R_heel2,R_fore3,R_mid2,R_fore4,R_fore2,R_cadence,R_speed,R_steps,R_zupt,R_gyroNorm,R_accH,R_gyro_x,R_gyro_y,R_gyro_z,R_acc_x,R_acc_y,R_acc_z,R_nav_ax,R_nav_ay,R_nav_az,R_stepVel,R_stepVelj,R_stepDispRaw,R_stepDispZUPT,R_gaitEvent,R_motorMode,R_motorActive,R_motorAlignment,R_motorRegionMask,R_motorAmplitude,R_motorIntervalMs,R_motorDurationMs,R_motorPhaseMs,R_motorCycleMs
stim,15,15,0,83981.369,0.991,0.050,0.009,0.127,2711,0,583,3241,106,151,439,3805,42,0.000,4,1,5.402,0.061,-4.160,-3.020,-1.660,-0.184,-0.100,0.956,0.040,0.046,-0.074,0.000,0.000,0.266,0.193,2,2,0,1,7,255,1440,300,0,0
stim,15,15,0,83986.369,0.991,0.050,0.009,0.127,2708,0,579,3229,105,151,432,3743,42,0.000,4,1,1.847,0.066,0.800,0.900,1.400,-0.195,-0.118,1.014,-0.028,-0.060,-0.074,0.000,0.000,0.266,0.193,2,2,0,1,7,255,1440,300,0,0
stim,15,15,0,83991.369,0.991,0.050,0.009,0.127,2704,0,581,3240,104,149,439,3797,42,0.000,4,1,2.180,0.066,-2.080,0.480,-0.440,-0.147,-0.117,0.953,-0.028,-0.060,-0.222,0.000,0.000,0.266,0.193,2,2,0,1,7,255,1440,300,0,0
stim,63,63,0,83996.369,0.991,0.050,0.009,0.128,2721,0,576,3231,105,156,437,3800,42,0.000,4,1,4.883,0.079,0.620,-3.980,-2.760,-0.200,-0.080,0.980,-0.052,-0.060,0.018,0.000,0.000,0.266,0.193,2,2,0,1,7,255,1440,300,0,0
stim,63,63,0,84001.369,0.991,0.050,0.009,0.127,2709,0,581,3229,118,152,432,3797,42,0.000,4,1,5.210,0.206,-0.800,4.320,2.800,-0.175,-0.161,1.008,0.010,-0.206,0.018,0.000,0.000,0.266,0.193,2,2,0,1,7,255,1440,300,0,0
stim,63,63,0,84006.369,0.991,0.050,0.009,0.128,2713,0,583,3225,120,149,438,3795,42,0.000,4,1,5.956,0.294,-0.720,-4.780,-3.480,-0.173,-0.044,0.924,0.010,0.294,0.018,0.000,0.000,0.266,0.193,2,2,0,1,7,255,1440,300,0,0
stim,63,63,0,84011.369,0.991,0.050,0.009,0.127,2709,0,581,3247,124,149,441,3788,42,0.000,4,1,3.390,0.482,0.980,2.440,2.140,-0.192,-0.164,1.039,0.010,-0.482,0.316,0.000,0.000,0.266,0.193,2,2,0,1,7,255,1440,300,0,0
stim,80,80,0,84016.369,0.991,0.050,0.009,0.128,2717,0,586,3227,121,153,441,3799,42,0.000,4,1,3.402,0.433,-2.620,-1.240,-1.780,-0.168,-0.056,0.922,0.144,0.408,-0.602,0.000,0.000,0.266,0.193,2,2,0,1,7,255,1440,300,0,0
stim,80,80,0,84021.371,0.991,0.050,0.009,0.127,2713,0,583,3236,133,147,438,3807,42,0.000,4,1,2.575,0.351,2.080,-0.980,1.160,-0.189,-0.148,1.026,-0.060,-0.346,0.506,0.000,0.000,0.266,0.193,2,2,0,1,7,255,1440,300,0,0
stim,80,80,0,84026.369,0.991,0.050,0.009,0.128,2714,0,588,3239,125,149,443,3800,42,0.000,4,1,3.142,0.325,-2.440,1.400,-1.400,-0.174,-0.070,0.948,0.114,0.304,-0.346,0.000,0.000,0.266,0.193,2,2,0,1,7,255,1440,300,0,0
stim,80,80,0,84031.369,0.991,0.050,0.009,0.127,2712,0,588,3229,145,150,444,3804,42,0.000,4,1,3.209,0.248,1.900,-2.340,1.100,-0.184,-0.134,1.000,-0.034,-0.246,0.236,0.000,0.000,0.266,0.193,2,2,0,1,7,255,1440,300,0,0
stim,80,80,0,84036.369,0.991,0.050,0.009,0.128,2714,0,587,3237,140,152,443,3791,42,0.000,4,1,2.532,0.266,-1.100,1.700,-1.520,-0.181,-0.078,0.968,0.074,0.256,-0.140,0.000,0.000,0.266,0.193,2,2,0,1,7,255,1440,300,0,0
stim,80,80,0,84041.369,0.991,0.050,0.009,0.127,2723,0,596,3236,143,155,439,3789,42,0.000,4,1,1.797,0.126,0.440,-1.480,0.920,-0.178,-0.118,0.984,0.030,-0.122,0.050,0.000,0.000,0.266,0.193,2,2,0,1,7,255,1440,300,0,0
stim,80,80,0,84046.369,0.991,0.050,0.009,0.128,2715,0,598,3236,139,142,443,3785,42,0.000,4,1,0.804,0.108,0.180,0.480,-0.620,-0.184,-0.095,0.979,0.030,0.104,-0.014,0.000,0.000,0.266,0.193,2,2,0,1,7,255,1440,300,0,0
stim,80,80,0,84051.369,0.991,0.050,0.009,0.128,2715,0,586,3225,141,144,441,3774,42,0.000,4,1,1.024,0.076,-0.720,-0.260,-0.680,-0.178,-0.097,0.979,0.030,0.070,-0.014,0.000,0.000,0.266,0.193,2,2,0,1,7,255,1440,300,0,0
stim,81,81,0,84056.369,0.991,0.050,0.009,0.128,2713,0,587,3244,139,147,443,3773,42,0.000,4,1,1.318,0.072,0.680,-0.440,1.040,-0.182,-0.109,0.984,0.018,0.070,-0.014,0.000,0.000,0.266,0.193,2,2,0,1,7,255,1440,300,0,0
stim,81,81,0,84061.369,0.991,0.050,0.009,0.128,2712,0,588,3241,145,149,443,3705,42,0.000,4,1,1.062,0.071,-0.120,0.180,-1.040,-0.186,-0.095,0.977,0.014,0.070,-0.016,0.000,0.000,0.266,0.193,2,2,0,1,7,255,1440,300,0,0
stim,81,81,0,84066.371,0.991,0.050,0.009,0.128,2711,0,586,3237,140,145,442,3710,42,0.000,4,1,0.484,0.062,-0.180,-0.380,0.240,-0.175,-0.097,0.982,0.014,0.060,0.010,0.000,0.000,0.266,0.193,2,2,0,1,7,255,1440,300,0,0
stim,95,95,0,84071.370,0.991,0.050,0.009,0.128,2726,0,593,3245,149,151,445,3729,42,0.000,4,1,1.494,0.060,0.860,-0.060,1.220,-0.184,-0.116,0.981,-0.002,0.060,0.010,0.000,0.000,0.266,0.193,2,2,0,1,7,255,1440,300,0,0
stim,95,95,0,84076.369,0.991,0.050,0.009,0.128,2723,0,584,3231,139,143,445,3734,42,0.000,4,1,2.029,0.064,-0.920,-0.320,-1.780,-0.184,-0.091,0.976,0.022,0.060,0.010,0.000,0.000,0.266,0.193,2,2,0,1,7,255,1440,300,0,0
stim,95,95,0,84081.369,0.991,0.050,0.009,0.128,2724,0,593,3227,144,149,441,3695,42,0.000,4,1,0.545,0.028,0.120,-0.180,0.500,-0.177,-0.106,0.988,0.022,-0.018,0.034,0.000,0.000,0.266,0.193,2,2,0,1,7,255,1440,300,0,0
stim,158,158,0,84086.369,0.991,0.050,0.009,0.128,2723,0,595,3225,156,151,442,3705,42,0.000,4,1,1.397,0.028,0.800,-0.320,1.100,-0.187,-0.117,0.979,0.022,-0.018,0.022,0.000,0.000,0.266,0.193,2,2,0,1,7,255,1440,300,0,1440
stim,158,158,0,84091.369,0.991,0.050,0.009,0.128,2713,0,595,3229,143,144,446,3656,42,0.000,4,1,2.145,0.020,-0.780,-0.620,-1.900,-0.185,-0.095,0.981,0.008,-0.018,0.022,0.000,0.000,0.266,0.193,2,2,0,1,7,255,1440,300,0,1440
stim,158,158,0,84096.371,0.991,0.050,0.009,0.128,2712,0,595,3244,150,153,443,3669,42,0.000,4,1,0.323,0.102,0.180,-0.240,-0.120,-0.180,-0.093,0.986,0.008,0.102,0.022,0.000,0.000,0.266,0.193,2,2,0,1,7,255,1440,300,1,1440
stim,158,158,0,84101.369,0.991,0.050,0.009,0.128,2715,0,591,3239,134,146,441,3689,42,0.000,4,1,1.861,0.102,1.040,-0.500,1.460,-0.187,-0.121,0.983,0.008,0.102,0.050,0.000,0.000,0.266,0.193,2,2,0,1,7,255,1440,300,6,1440
stim,158,158,0,84106.369,0.991,0.050,0.009,0.128,2723,0,595,3239,148,147,446,3657,42,0.000,4,1,1.247,0.024,-0.420,-0.860,-0.800,-0.185,-0.104,0.978,-0.016,0.018,0.050,0.000,0.000,0.266,0.193,2,2,0,1,7,255,1440,300,11,1440
stim,158,158,0,84111.369,0.991,0.050,0.009,0.128,2722,0,590,3235,137,139,443,3732,42,0.000,4,1,1.328,0.024,-0.300,-0.680,-1.100,-0.181,-0.087,0.985,-0.016,0.018,0.032,0.000,0.000,0.266,0.193,2,2,0,1,7,255,1440,300,16,1440
stim,158,158,0,84116.369,0.991,0.049,0.009,0.128,2717,0,591,3229,135,139,443,3628,42,0.000,4,1,1.265,0.056,0.680,-0.540,0.920,-0.185,-0.099,0.984,0.004,0.056,0.032,0.000,0.000,0.266,0.193,2,2,0,1,7,255,1440,300,21,1440
stim,158,158,0,84121.369,0.991,0.050,0.010,0.128,2725,0,589,3243,139,123,445,3592,42,0.000,4,1,1.206,0.056,0.180,-0.980,0.680,-0.183,-0.114,0.980,0.004,0.056,0.032,0.000,0.000,0.266,0.193,2,2,0,1,7,255,1440,300,26,1440
stim,31,31,0,84126.369,0.991,0.049,0.010,0.128,2717,0,590,3243,143,123,443,3579,42,0.000,4,1,1.137,0.056,-0.300,-0.860,-0.680,-0.181,-0.098,0.982,0.004,0.056,0.018,0.000,0.000,0.266,0.193,2,2,0,2,7,255,1728,200,31,1728
stim,31,31,0,84131.369,0.991,0.049,0.010,0.128,2717,0,596,3231,140,113,443,3683,42,0.000,4,1,1.356,0.071,-0.180,-0.920,-0.980,-0.184,-0.086,0.984,0.038,0.060,0.018,0.000,0.000,0.266,0.193,2,2,0,2,7,255,1728,200,36,1728
stim,31,31,0,84136.369,0.991,0.049,0.010,0.128,2715,0,600,3234,147,101,445,3637,42,0.000,4,1,0.851,0.124,-0.060,-0.840,-0.120,-0.186,-0.092,0.984,0.038,0.118,0.030,0.000,0.000,0.266,0.193,2,2,0,2,7,255,1728,200,41,1728
stim,31,31,0,84141.371,0.991,0.049,0.010,0.128,2715,0,595,3243,139,115,443,3646,42,0.000,4,1,1.278,0.118,0.060,-1.080,0.680,-0.185,-0.109,0.982,0.002,0.118,0.034,0.000,0.000,0.266,0.193,2,2,0,2,7,255,1728,200,46,1728
stim,31,31,0,84146.369,0.991,0.049,0.010,0.128,2713,0,599,3240,147,116,445,3645,42,0.000,4,1,1.195,0.024,0.060,-1.020,0.620,-0.181,-0.106,0.981,0.002,-0.024,0.034,0.000,0.000,0.266,0.193,2,2,0,2,7,255,1728,200,51,1728
stim,31,31,0,84151.369,0.991,0.049,0.010,0.128,2715,0,597,3222,139,108,442,3677,42,0.000,4,1,1.230,0.025,-0.120,-1.200,-0.240,-0.181,-0.094,0.982,0.006,-0.024,0.012,0.000,0.000,0.266,0.193,2,2,0,2,7,255,1728,200,56,1728
stim,31,31,0,84156.369,0.991,0.049,0.010,0.128,2717,0,593,3237,145,114,447,3723,42,0.000,4,1,1.396,0.087,-0.360,-1.140,-0.720,-0.184,-0.089,0.983,0.022,0.084,0.012,0.000,0.000,0.266,0.193,2,2,0,2,7,255,1728,200,61,1728
stim,31,31,0,84161.369,0.991,0.049,0.010,0.128,2724,0,597,3233,147,112,455,3723,42,0.000,4,1,1.332,0.087,-0.360,-1.260,-0.240,-0.187,-0.099,0.985,0.022,0.084,0.018,0.000,0.000,0.266,0.193,2,2,0,2,7,255,1728,200,66,1728
stim,31,31,0,84166.369,0.991,0.049,0.010,0.128,2723,0,594,3229,141,99,445,3739,42,0.000,4,1,1.514,0.062,-0.060,-1.320,0.740,-0.186,-0.104,0.984,-0.026,0.056,0.050,0.000,0.000,0.266,0.193,2,2,0,2,7,255,1728,200,71,1728
stim,31,31,0,84171.369,0.991,0.049,0.010,0.128,2715,0,587,3239,125,115,451,3731,42,0.000,4,1,1.865,0.026,0.240,-1.440,1.160,-0.181,-0.104,0.984,-0.026,-0.004,0.050,0.000,0.000,0.266,0.193,2,2,0,2,7,255,1728,200,76,1728
stim,31,31,0,84176.369,0.991,0.049,0.010,0.128,2720,0,587,3231,128,117,448,3735,42,0.000,4,1,1.584,0.013,0.240,-1.380,0.740,-0.178,-0.099,0.981,0.012,-0.004,0.036,0.000,0.000,0.266,0.193,2,2,0,2,7,255,1728,200,81,1728
stim,31,31,0,84181.369,0.991,0.049,0.010,0.128,2723,0,585,3224,127,138,451,3740,42,0.000,4,1,1.511,0.043,0.000,-1.500,-0.180,-0.178,-0.100,0.980,0.038,0.020,-0.002,0.000,0.000,0.266,0.193,2,2,0,2,7,255,1728,200,86,1728
stim,63,63,0,84186.369,0.991,0.049,0.010,0.128,2727,0,583,3245,139,140,453,3724,42,0.000,4,1,1.674,0.043,-0.300,-1.440,-0.800,-0.181,-0.103,0.980,0.038,0.020,-0.002,0.000,0.000,0.266,0.193,2,2,0,2,7,255,1728,200,91,1728
stim,63,63,0,84191.369,0.991,0.049,0.010,0.128,2729,0,591,3229,121,133,461,3753,42,0.000,4,1,1.814,0.020,-0.420,-1.680,-0.540,-0.185,-0.101,0.982,0.002,0.020,-0.002,0.000,0.000,0.266,0.193,2,2,0,2,7,255,1728,200,96,1728
stim,63,63,0,84196.369,0.991,0.049,0.010,0.128,2724,0,597,3242,119,119,448,3749,42,0.000,4,1,1.677,0.037,-0.360,-1.620,0.240,-0.186,-0.096,0.983,-0.022,0.030,0.020,0.000,0.000,0.266,0.193,2,2,0,2,7,255,1728,200,101,1728
stim,63,63,0,84201.369,0.991,0.049,0.010,0.128,2723,0,589,3225,148,123,445,3766,42,0.000,4,1,2.011,0.075,-0.060,-1.720,1.040,-0.183,-0.095,0.982,-0.022,0.072,0.020,0.000,0.000,0.266,0.193,2,2,0,2,7,255,1728,200,106,1728
stim,127,127,0,84206.369,0.991,0.049,0.011,0.128,2725,0,583,3239,155,117,453,3773,42,0.000,4,1,2.078,0.072,0.120,-1.720,1.160,-0.177,-0.098,0.981,0.004,0.072,0.016,0.000,0.000,0.266,0.193,2,2,0,2,7,255,1728,200,111,1728
stim,127,127,0,84211.369,0.991,0.049,0.011,0.128,2729,0,583,3229,139,103,455,3773,42,0.000,4,1,1.921,0.054,0.060,-1.780,0.720,-0.175,-0.102,0.979,0.046,0.028,-0.006,0.000,0.000,0.266,0.193,2,2,0,2,7,255,1728,200,116,1728
stim,127,127,0,84216.369,0.991,0.049,0.011,0.128,2725,0,585,3227,108,105,455,3785,42,0.000,4,1,1.738,0.048,-0.240,-1.720,-0.060,-0.175,-0.102,0.978,0.046,-0.012,-0.030,0.000,0.000,0.266,0.193,2,2,0,2,7,255,1728,200,121,1728
stim,127,127,0,84221.369,0.991,0.049,0.011,0.128,2725,0,576,3235,69,112,447,3787,42,0.000,4,1,1.889,0.048,-0.600,-1.720,-0.500,-0.180,-0.098,0.979,0.046,-0.012,-0.030,0.000,0.000,0.266,0.193,2,2,0,2,7,255,1728,200,126,1728
stim,127,127,0,84226.369,0.991,0.049,0.011,0.128,2725,0,583,3232,89,108,452,3788,42,0.000,4,1,1.882,0.035,-0.600,-1.780,-0.120,-0.183,-0.099,0.981,0.010,0.034,-0.014,0.000,0.000,0.266,0.193,2,2,0,2,7,255,1728,200,131,1728
stim,127,127,0,84231.369,0.991,0.049,0.011,0.128,2719,0,570,3225,121,108,455,3773,42,0.000,4,1,1.876,0.035,-0.360,-1.760,0.540,-0.182,-0.099,0.981,-0.006,0.034,0.006,0.000,0.000,0.266,0.193,2,2,0,2,7,255,1728,200,136,1728
stim,128,128,0,84236.369,0.991,0.049,0.011,0.128,2719,0,578,3240,121,119,453,3791,42,0.000,4,1,2.142,0.031,-0.060,-1.760,1.220,-0.178,-0.103,0.981,-0.006,0.030,0.006,0.000,0.000,0.266,0.193,2,2,0,2,7,255,1728,200,141,1728
stim,128,128,0,84241.369,0.991,0.049,0.011,0.127,2720,0,567,3227,101,117,453,3798,42,0.000,4,1,2.076,0.023,0.020,-1.760,1.100,-0.174,-0.104,0.979,0.020,-0.012,0.006,0.000,0.000,0.266,0.193,2,2,0,2,7,255,1728,200,146,1728
stim,128,128,0,84246.369,0.991,0.049,0.011,0.127,2725,0,565,3237,101,125,447,3785,42,0.000,4,1,1.812,0.053,-0.240,-1.760,0.360,-0.172,-0.104,0.978,0.042,-0.032,-0.028,0.000,0.000,0.266,0.193,2,2,0,2,7,255,1728,200,151,1728
stim,128,128,0,84251.369,0.991,0.049,0.011,0.127,2726,0,568,3225,97,121,453,3788,42,0.000,4,1,1.720,0.053,-0.480,-1.640,-0.200,-0.175,-0.101,0.978,0.042,-0.032,-0.034,0.000,0.000,0.266,0.193,2,2,0,2,7,255,1728,200,156,1728
stim,128,128,0,84256.369,0.991,0.049,0.011,0.127,2720,0,581,3237,111,123,448,3775,42,0.000,4,1,1.803,0.038,-0.540,-1.700,-0.260,-0.178,-0.102,0.980,0.038,-0.006,-0.034,0.000,0.000,0.266,0.193,2,2,0,2,7,255,1728,200,161,1728
stim,128,128,0,84261.369,0.991,0.049,0.011,0.127,2727,0,574,3226,119,136,453,3787,42,0.000,4,1,1.661,0.013,-0.360,-1.620,0.060,-0.179,-0.101,0.980,0.012,-0.006,-0.004,0.000,0.000,0.266,0.193,2,2,0,2,7,255,1728,200,166,1728
stim,128,128,0,84266.369,0.991,0.049,0.012,0.127,2725,0,575,3237,109,136,448,3787,42,0.000,4,1,1.749,0.014,0.020,-1.620,0.660,-0.178,-0.100,0.980,0.008,0.012,-0.004,0.000,0.000,0.266,0.193,2,2,0,2,7,255,1728,200,171,1728
stim,128,128,0,84271.369,0.991,0.049,0.012,0.127,2727,0,579,3223,135,138,447,3781,42,0.000,4,1,1.832,0.014,0.020,-1.560,0.960,-0.174,-0.102,0.978,0.008,0.012,-0.010,0.000,0.000,0.266,0.193,2,2,0,2,7,255,1728,200,176,1728
stim,144,144,0,84276.369,0.991,0.049,0.012,0.127,2732,0,575,3229,119,119,455,3775,42,0.000,4,1,1.639,0.036,-0.040,-1.500,0.660,-0.172,-0.103,0.978,0.034,-0.012,-0.038,0.000,0.000,0.266,0.193,2,2,0,2,7,255,1728,200,181,1728
stim,144,144,0,84281.369,0.991,0.049,0.012,0.127,2727,0,576,3229,105,119,457,3809,42,0.000,4,1,1.561,0.050,-0.420,-1.500,0.100,-0.172,-0.101,0.978,0.048,-0.014,-0.040,0.000,0.000,0.266,0.193,2,2,0,2,7,255,1728,200,186,1728
stim,145,145,0,84286.369,0.991,0.049,0.012,0.127,2729,0,583,3231,139,124,455,3795,42,0.000,4,1,1.512,0.050,-0.480,-1.420,-0.200,-0.174,-0.101,0.978,0.048,-0.014,-0.040,0.000,0.000,0.266,0.193,2,2,0,2,7,255,1728,200,191,1728
stim,145,145,0,84291.369,0.991,0.049,0.012,0.127,2729,0,567,3229,144,153,455,3816,42,0.000,4,1,1.449,0.032,-0.480,-1.360,-0.140,-0.177,-0.100,0.980,0.032,-0.002,-0.032,0.000,0.000,0.266,0.193,2,2,0,2,7,255,1728,200,196,1728
stim,208,208,0,84296.369,0.991,0.049,0.012,0.127,2725,0,581,3225,148,149,455,3787,42,0.000,4,1,1.351,0.020,-0.280,-1.300,0.240,-0.177,-0.100,0.981,0.014,0.014,-0.010,0.000,0.000,0.266,0.193,2,2,0,2,7,255,1728,200,201,1728
stim,208,208,0,84301.369,0.991,0.049,0.012,0.127,2726,0,583,3225,139,151,456,3795,42,0.000,4,1,1.425,0.020,-0.220,-1.300,0.540,-0.175,-0.101,0.981,0.014,0.014,-0.002,0.000,0.000,0.266,0.193,2,2,0,2,7,255,1728,200,206,1728
stim,208,208,0,84306.369,0.991,0.049,0.012,0.127,2735,0,583,3226,123,157,453,3788,42,0.000,4,1,1.378,0.024,-0.040,-1.240,0.600,-0.173,-0.103,0.981,0.024,0.002,-0.002,0.000,0.000,0.266,0.193,2,2,0,2,7,255,1728,200,211,1728
stim,208,208,0,84311.369,0.991,0.049,0.012,0.127,2729,0,587,3235,144,157,453,3785,42,0.000,4,1,1.530,0.042,0.440,-0.920,1.140,-0.171,-0.102,0.972,0.036,-0.022,-0.004,0.000,0.000,0.266,0.193,2,2,0,2,7,255,1728,200,216,1728
stim,209,209,0,84316.369,0.991,0.049,0.012,0.127,2731,0,584,3227,145,157,455,3798,42,0.000,4,1,1.345,0.042,-0.540,-1.040,0.660,-0.174,-0.101,0.974,0.036,-0.022,-0.074,0.000,0.000,0.266,0.193,2,2,0,2,7,255,1728,200,221,1728
stim,209,209,0,84321.369,0.991,0.049,0.012,0.127,2731,0,579,3223,141,151,456,3786,42,0.000,4,1,2.429,0.037,-2.060,-1.280,-0.140,-0.172,-0.101,0.983,0.036,-0.010,-0.074,0.000,0.000,0.266,0.193,2,2,0,2,7,255,1728,200,226,1728
stim,209,209,0,84326.369,0.991,0.049,0.012,0.127,2720,0,583,3225,148,151,455,3773,42,0.000,4,1,1.180,0.035,-0.520,-1.040,-0.200,-0.175,-0.103,0.990,0.034,-0.010,0.016,0.000,0.000,0.266,0.193,2,2,0,2,7,255,1728,200,231,1728
stim,209,209,0,84331.369,0.991,0.049,0.012,0.127,2729,0,575,3225,156,151,455,3788,42,0.000,4,1,1.254,0.036,0.700,-1.040,0.040,-0.177,-0.106,0.987,0.034,-0.012,0.062,0.000,0.000,0.266,0.193,2,2,0,2,7,255,1728,200,236,1728
stim,209,209,0,84336.369,0.991,0.049,0.012,0.127,2733,0,584,3231,145,151,457,3789,42,0.000,4,1,1.521,0.013,1.000,-1.040,0.480,-0.175,-0.101,0.978,0.006,-0.012,0.062,0.000,0.000,0.266,0.193,2,2,0,2,7,255,1728,200,241,1728
stim,209,209,0,84341.369,0.991,0.049,0.012,0.127,2733,0,579,3225,126,135,446,3792,42,0.000,4,1,1.429,0.007,0.620,-0.920,0.900,-0.174,-0.098,0.973,0.006,-0.004,-0.034,0.000,0.000,0.266,0.193,2,2,0,2,7,255,1728,200,246,1728
stim,209,209,0,84346.369,0.991,0.049,0.012,0.127,2725,0,584,3235,103,141,455,3788,42,0.000,4,1,1.349,0.015,-0.220,-0.980,0.900,-0.171,-0.100,0.973,0.014,-0.004,-0.080,0.000,0.000,0.266,0.193,2,2,0,2,7,255,1728,200,251,1728
stim,209,209,0,84351.369,0.991,0.049,0.013,0.127,2724,0,582,3229,105,127,448,3780,42,0.000,4,1,1.223,0.035,-0.780,-0.900,0.280,-0.170,-0.104,0.979,0.034,-0.008,-0.080,0.000,0.000,0.266,0.193,2,2,0,2,7,255,1728,200,256,1728
stim,209,209,0,84356.369,0.991,0.049,0.013,0.127,2727,0,560,3217,112,119,456,3773,42,0.000,4,1,0.959,0.055,-0.520,-0.780,-0.200,-0.171,-0.103,0.982,0.048,-0.026,-0.024,0.000,0.000,0.266,0.193,2,2,0,2,7,255,1728,200,261,1728
stim,209,209,0,84361.371,0.991,0.049,0.013,0.127,2739,0,581,3216,133,140,456,3787,42,0.000,4,1,0.788,0.055,0.020,-0.720,-0.320,-0.175,-0.098,0.983,0.048,-0.026,0.008,0.000,0.000,0.266,0.193,2,2,0,2,7,255,1728,200,266,1728
stim,240,240,0,84366.369,0.991,0.049,0.013,0.127,2720,0,583,3225,133,149,457,3753,42,0.000,4,1,0.768,0.035,0.380,-0.660,0.100,-0.177,-0.097,0.980,0.024,0.026,0.008,0.000,0.000,0.266,0.193,2,2,0,2,7,255,1728,200,271,1728
stim,240,240,0,84371.369,0.991,0.049,0.013,0.127,2744,0,593,3228,147,143,461,3783,42,0.000,4,1,0.915,0.043,0.260,-0.600,0.640,-0.175,-0.096,0.976,0.010,0.042,-0.012,0.000,0.000,0.266,0.193,2,2,0,2,7,255,1728,200,276,1728
stim,240,240,0,84376.369,0.991,0.049,0.013,0.127,2729,0,595,3236,145,143,457,3759,42,0.000,4,1,1.712,0.043,0.500,-0.240,1.620,-0.170,-0.100,0.970,0.010,0.042,-0.052,0.000,0.000,0.266,0.193,2,2,0,2,7,255,1728,200,281,1728
stim,240,240,0,84381.369,0.991,0.049,0.013,0.127,2733,0,602,3219,152,120,458,3752,42,0.000,4,1,1.449,0.027,-1.020,-0.420,0.940,-0.172,-0.099,0.973,0.026,0.006,-0.086,0.000,0.000,0.266,0.193,2,2,0,2,7,255,1728,200,286,1728
stim,303,303,0,84386.369,0.991,0.049,0.013,0.127,2725,0,597,3225,140,87,456,3756,42,0.000,4,1,2.777,0.036,-2.660,-0.720,-0.340,-0.169,-0.098,0.985,0.036,0.006,-0.086,0.000,0.000,0.266,0.193,2,2,0,2,7,255,1728,200,291,1728
stim,303,303,0,84391.369,0.991,0.049,0.013,0.127,2733,0,603,3222,125,83,455,3774,42,0.000,4,1,1.115,0.042,-0.760,-0.420,-0.700,-0.173,-0.103,0.994,0.042,0.006,0.030,0.000,0.000,0.266,0.193,2,2,0,2,7,255,1728,200,296,1728
stim,303,303,0,84396.369,0.991,0.049,0.013,0.127,2729,0,600,3224,107,97,455,3776,42,0.000,4,1,1.012,0.043,0.760,-0.420,-0.520,-0.180,-0.104,0.989,0.042,-0.010,0.084,0.000,0.000,0.266,0.193,2,2,0,2,7,255,1728,200,301,1728
stim,303,303,0,84401.369,0.991,0.049,0.013,0.127,2731,0,599,3216,79,95,455,3759,42,0.000,4,1,1.469,0.032,1.360,-0.480,0.280,-0.182,-0.098,0.978,-0.030,-0.010,0.084,0.000,0.000,0.266,0.193,2,2,0,2,7,255,1728,200,306,1728
stim,303,303,0,84406.369,0.991,0.048,0.013,0.127,2731,0,601,3229,70,103,456,3739,42,0.000,4,1,1.542,0.050,0.760,-0.460,1.260,-0.177,-0.096,0.973,-0.030,0.040,-0.020,0.000,0.000,0.266,0.193,2,2,0,2,7,255,1728,200,311,1728
stim,303,303,0,84411.369,0.991,0.048,0.013,0.127,2731,0,603,3220,95,98,457,3752,42,0.000,4,1,1.407,0.042,-0.520,-0.520,1.200,-0.170,-0.099,0.974,-0.014,0.040,-0.076,0.000,0.000,0.266,0.193,2,2,0,2,7,255,1728,200,316,1728
stim,303,303,0,84416.369,0.991,0.049,0.013,0.127,2731,0,605,3222,107,95,457,3757,42,0.000,4,1,1.454,0.044,-1.320,-0.460,0.400,-0.167,-0.104,0.981,0.044,-0.006,-0.076,0.000,0.000,0.266,0.193,2,2,0,2,7,255,1728,200,321,1728
stim,303,303,0,84421.369,0.991,0.049,0.013,0.127,2731,0,599,3229,73,89,457,3753,42,0.000,4,1,1.289,0.047,-1.020,-0.460,-0.640,-0.172,-0.102,0.988,0.044,-0.016,-0.010,0.000,0.000,0.266,0.193,2,2,0,2,7,255,1728,200,326,1728
stim,303,303,0,84426.370,0.991,0.049,0.013,0.127,2727,0,589,3224,59,104,459,3755,42,0.000,4,1,1.089,0.043,-0.160,-0.400,-1.000,-0.178,-0.099,0.989,0.040,-0.016,0.068,0.000,0.000,0.266,0.193,2,2,0,2,7,255,1728,200,331,1728
stim,303,303,0,84431.369,0.991,0.048,0.013,0.127,2739,0,598,3229,63,99,457,3665,42,0.000,4,1,0.671,0.030,0.280,-0.460,-0.400,-0.183,-0.095,0.985,-0.002,0.030,0.068,0.000,0.000,0.266,0.193,2,2,0,2,7,255,1728,200,336,1728
stim,335,335,0,84436.371,0.991,0.048,0.013,0.127,2730,0,585,3227,112,93,459,3682,42,0.000,4,1,0.815,0.068,0.340,-0.580,0.460,-0.182,-0.097,0.980,-0.044,0.052,0.044,0.000,0.000,0.266,0.193,2,2,0,2,7,255,1728,200,341,1728
stim,335,335,0,84441.369,0.991,0.048,0.013,0.127,2735,0,593,3220,133,87,459,3678,42,0.000,4,1,1.242,0.068,-0.100,-0.640,1.060,-0.177,-0.097,0.979,-0.044,0.052,0.002,0.000,0.000,0.266,0.193,2,2,0,2,7,255,1728,200,346,1728
stim,335,335,0,84446.369,0.991,0.048,0.013,0.127,2727,0,586,3214,145,121,458,3672,42,0.000,4,1,1.921,0.039,0.340,-0.340,1.860,-0.174,-0.099,0.975,-0.010,0.038,-0.024,0.000,0.000,0.266,0.193,2,2,0,2,7,255,1728,200,351,1728
stim,335,335,0,84451.369,0.991,0.048,0.013,0.127,2740,0,576,3229,120,119,459,3693,42,0.000,4,1,2.038,0.038,-1.800,-0.760,0.580,-0.175,-0.094,0.979,0.004,0.038,-0.030,0.000,0.000,0.266,0.193,2,2,0,2,7,255,1728,200,356,1728
stim,335,335,0,84456.369,0.991,0.049,0.013,0.127,2729,0,565,3218,83,121,459,3704,42,0.000,4,1,3.489,0.030,-3.200,-1.060,-0.900,-0.176,-0.099,0.994,0.018,0.024,-0.030,0.000,0.000,0.266,0.193,2,2,0,2,7,255,1728,200,361,1728
stim,335,335,0,84461.369,0.991,0.049,0.013,0.127,2733,0,602,3219,45,119,461,3707,42,0.000,4,1,1.966,0.030,-1.180,-0.940,-1.260,-0.183,-0.103,1.004,0.018,0.024,0.120,0.000,0.000,0.266,0.193,2,2,0,2,7,255,1728,200,366,1728
stim,335,335,0,84466.370,0.991,0.049,0.013,0.127,2728,0,579,3225,41,123,459,3689,42,0.000,4,1,1.614,0.037,0.900,-1.060,-0.820,-0.188,-0.102,0.999,-0.028,0.024,0.190,0.000,0.000,0.266,0.193,2,2,0,2,7,255,1728,200,371,1728
stim,335,335,0,84471.369,0.991,0.048,0.013,0.127,2727,0,603,3223,75,109,457,3683,42,0.000,4,1,2.234,0.084,1.800,-1.240,0.460,-0.188,-0.091,0.985,-0.080,0.026,0.190,0.000,0.000,0.266,0.193,2,2,0,2,7,255,1728,200,376,1728
stim,335,335,0,84476.369,0.991,0.048,0.013,0.127,2730,0,591,3221,87,109,460,3705,42,0.000,4,1,2.406,0.141,1.080,-1.480,1.560,-0.181,-0.088,0.975,-0.080,0.116,0.050,0.000,0.000,0.266,0.193,2,2,0,2,7,255,1728,200,381,1728
stim,335,335,0,84481.369,0.991,0.048,0.013,0.127,2727,0,607,3229,137,104,456,3690,42,0.000,4,1,2.286,0.120,-0.460,-1.480,1.680,-0.172,-0.095,0.974,-0.030,0.116,-0.064,0.000,0.000,0.266,0.193,2,2,0,2,7,255,1728,200,386,1728
stim,367,367,0,84486.370,0.991,0.048,0.013,0.127,2739,0,599,3224,147,110,456,3695,42,0.000,4,1,2.273,0.043,-1.440,-1.660,0.580,-0.167,-0.101,0.982,0.032,0.028,-0.064,0.000,0.000,0.266,0.193,2,2,0,2,7,255,1728,200,391,1728
stim,367,367,0,84491.369,0.991,0.048,0.013,0.127,2727,0,602,3219,157,118,473,3706,42,0.000,4,1,2.142,0.054,-1.240,-1.600,-0.700,-0.171,-0.100,0.989,0.054,-0.006,-0.004,0.000,0.000,0.266,0.193,2,2,0,2,7,255,1728,200,396,1728
stim,367,367,0,84496.370,0.991,0.048,0.013,0.127,2731,0,590,3229,151,108,457,3675,42,0.000,4,1,1.990,0.054,-0.320,-1.600,-1.140,-0.177,-0.092,0.991,0.054,-0.006,0.062,0.000,0.000,0.266,0.193,2,2,0,2,7,255,1728,200,401,1728
stim,367,367,0,84501.369,0.991,0.048,0.013,0.127,2733,0,589,3219,141,111,457,3687,42,0.000,4,1,1.697,0.086,0.400,-1.600,-0.400,-0.182,-0.087,0.985,0.016,0.084,0.062,0.000,0.000,0.266,0.193,2,2,0,2,7,255,1728,200,406,1728
stim,433,433,0,84506.370,0.991,0.048,0.013,0.127,2741,0,586,3223,120,113,455,3669,42,0.000,4,1,1.928,0.099,0.280,-1.660,0.940,-0.181,-0.090,0.978,-0.030,0.094,0.030,0.000,0.000,0.266,0.193,2,2,0,2,7,255,1728,200,411,1728
stim,433,433,0,84511.369,0.991,0.048,0.013,0.127,2741,0,593,3223,149,107,455,3668,42,0.000,4,1,2.545,0.099,-0.260,-1.780,1.800,-0.174,-0.094,0.977,-0.030,0.094,-0.034,0.000,0.000,0.266,0.193,2,2,0,2,7,255,1728,200,416,1728
stim,433,433,0,84516.369,0.991,0.048,0.014,0.127,2742,0,617,3223,151,117,455,3702,42,0.000,4,1,2.505,0.038,-0.880,-1.820,1.480,-0.167,-0.097,0.979,0.006,0.038,-0.046,0.000,0.000,0.266,0.193,2,2,0,2,7,255,1728,200,421,1728
stim,433,433,0,84521.369,0.991,0.048,0.014,0.127,2743,0,605,3220,141,117,455,3678,42,0.000,4,1,2.152,0.071,-1.060,-1.820,0.440,-0.167,-0.096,0.983,0.070,0.010,-0.046,0.000,0.000,0.266,0.193,2,2,0,2,7,255,1728,200,426,1728
stim,433,433,0,84526.369,0.991,0.048,0.014,0.127,2739,0,608,3224,123,115,457,3686,42,0.000,4,1,1.944,0.071,-0.880,-1.700,-0.340,-0.169,-0.096,0.983,0.070,0.010,-0.004,0.000,0.000,0.266,0.193,2,2,0,2,7,255,1728,200,431,1728
stim,433,433,0,84531.370,0.991,0.048,0.014,0.127,2732,0,615,3227,120,115,455,3675,42,0.000,4,1,1.729,0.057,-0.500,-1.640,-0.220,-0.174,-0.095,0.983,0.056,0.012,0.000,0.000,0.000,0.266,0.193,2,2,0,2,7,255,1728,200,436,1728
stim,433,433,0,84536.370,0.991,0.048,0.014,0.127,2733,0,609,3222,135,106,461,3703,42,0.000,4,1,1.794,0.027,-0.380,-1.640,0.620,-0.176,-0.096,0.979,0.006,0.026,0.000,0.000,0.000,0.266,0.193,2,2,0,2,7,255,1728,200,441,1728
stim,433,433,0,84541.370,0.991,0.048,0.014,0.127,2743,0,623,3217,125,110,461,3721,42,0.000,4,1,2.212,0.026,-0.500,-1.620,1.420,-0.173,-0.099,0.979,0.002,0.026,-0.022,0.000,0.000,0.266,0.193,2,2,0,2,7,255,1728,200,446,1728
stim,433,433,0,84546.370,0.991,0.048,0.014,0.127,2731,0,614,3214,136,114,469,3721,42,0.000,4,1,2.413,0.004,-0.800,-1.620,1.600,-0.168,-0.101,0.978,0.002,-0.004,-0.024,0.000,0.000,0.266,0.193,2,2,0,2,7,255,1728,200,451,1728
stim,433,433,0,84551.369,0.991,0.048,0.014,0.127,2735,0,621,3221,125,110,467,3705,42,0.000,4,1,2.043,0.048,-1.000,-1.560,0.860,-0.165,-0.102,0.981,0.034,-0.034,-0.024,0.000,0.000,0.266,0.193,2,2,0,2,7,255,1728,200,456,1728
stim,433,433,0,84556.369,0.991,0.048,0.014,0.127,2735,0,617,3225,125,107,469,3745,42,0.000,4,1,1.787,0.064,-0.860,-1.560,0.140,-0.167,-0.102,0.981,0.046,-0.044,-0.020,0.000,0.000,0.266,0.193,2,2,0,2,7,255,1728,200,461,1728
stim,433,433,0,84561.369,0.991,0.048,0.014,0.127,2740,0,616,3216,121,106,469,3728,42,0.000,4,1,1.648,0.064,-0.680,-1.500,-0.060,-0.170,-0.100,0.982,0.046,-0.044,-0.016,0.000,0.000,0.266,0.193,2,2,0,2,7,255,1728,200,466,1728
stim,433,433,0,84566.369,0.991,0.048,0.014,0.127,2732,0,604,3219,93,109,469,3710,42,0.000,4,1,1.571,0.030,-0.620,-1.420,0.260,-0.173,-0.099,0.980,0.022,-0.020,-0.012,0.000,0.000,0.266,0.193,2,2,0,2,7,255,1728,200,471,1728
stim,433,433,0,84571.369,0.991,0.048,0.014,0.127,2741,0,623,3215,85,93,471,3729,42,0.000,4,1,1.815,0.004,-0.680,-1.480,0.800,-0.172,-0.099,0.979,-0.004,0.000,-0.012,0.000,0.000,0.266,0.193,2,2,0,2,7,255,1728,200,476,1728
stim,448,448,0,84576.369,0.991,0.048,0.015,0.126,2731,0,617,3221,85,81,470,3709,42,0.000,4,1,1.902,0.004,-0.800,-1.420,0.980,-0.169,-0.099,0.979,-0.004,0.000,-0.028,0.000,0.000,0.266,0.193,2,2,0,2,7,255,1728,200,481,1728
stim,448,448,0,84581.369,0.991,0.048,0.015,0.126,2733,0,609,3230,88,85,472,3723,42,0.000,4,1,1.818,0.023,-0.740,-1.420,0.860,-0.166,-0.100,0.980,0.022,-0.008,-0.028,0.000,0.000,0.266,0.193,2,2,0,2,7,255,1728,200,486,1728
stim,448,448,0,84586.369,0.991,0.048,0.015,0.126,2729,0,603,3223,114,70,471,3703,42,0.000,4,1,1.506,0.055,-0.620,-1.300,0.440,-0.165,-0.099,0.979,0.050,-0.022,-0.028,0.000,0.000,0.266,0.193,2,2,0,2,7,255,1728,200,491,1728
stim,448,448,0,84591.369,0.991,0.048,0.015,0.126,2741,0,614,3221,121,84,475,3705,42,0.000,4,1,1.342,0.055,-0.500,-1.240,0.120,-0.167,-0.098,0.979,0.050,-0.022,-0.034,0.000,0.000,0.266,0.193,2,2,0,2,7,255,1728,200,496,1728
stim,514,514,0,84596.369,0.991,0.048,0.015,0.126,2741,0,629,3225,109,95,473,3647,42,0.000,4,1,1.328,0.035,-0.620,-1.160,0.180,-0.168,-0.097,0.978,0.034,-0.006,-0.036,0.000,0.000,0.266,0.193,2,2,0,2,7,255,1728,200,501,1728
stim,514,514,0,84601.369,0.991,0.048,0.015,0.126,2739,0,628,3227,106,90,472,3663,42,0.000,4,1,1.394,0.026,-0.740,-1.040,0.560,-0.168,-0.098,0.977,0.026,0.000,-0.050,0.000,0.000,0.266,0.193,2,2,0,2,7,255,1728,200,506,1728
stim,514,514,0,84606.369,0.991,0.048,0.015,0.126,2732,0,631,3215,95,85,479,3655,42,0.000,4,1,1.554,0.026,-0.600,-0.920,1.100,-0.163,-0.096,0.974,0.026,0.000,-0.058,0.000,0.000,0.266,0.193,2,2,0,2,7,255,1728,200,511,1728
stim,514,514,0,84611.369,0.991,0.048,0.015,0.126,2737,0,635,3228,108,97,483,3693,42,0.000,4,1,2.550,0.040,0.740,0.000,2.440,-0.162,-0.105,0.965,0.040,-0.002,-0.090,0.000,0.000,0.266,0.193,2,2,0,2,7,255,1728,200,516,1728
stim,530,530,0,84616.369,0.991,0.048,0.015,0.126,2735,0,620,3231,93,103,484,3661,42,0.000,4,1,2.649,0.054,-2.440,-0.740,0.720,-0.164,-0.094,0.969,0.054,-0.002,-0.140,0.000,0.000,0.266,0.193,2,2,0,2,7,255,1728,200,521,1728
stim,530,530,0,84621.369,0.991,0.048,0.015,0.126,2741,0,621,3234,91,105,481,3703,42,0.000,4,1,3.889,0.058,-3.780,-0.800,-0.440,-0.163,-0.095,0.989,0.054,0.020,-0.140,0.000,0.000,0.266,0.193,2,2,0,2,7,255,1728,200,526,1728
stim,530,530,0,84626.369,0.991,0.048,0.015,0.126,2742,0,624,3222,83,114,483,3685,42,0.000,4,1,1.243,0.058,-1.080,-0.360,-0.500,-0.168,-0.104,0.997,0.054,0.020,0.052,0.000,0.000,0.266,0.193,2,2,0,2,7,255,1728,200,531,1728
stim,530,530,0,84631.369,0.991,0.048,0.015,0.126,2731,0,631,3229,90,108,478,3684,42,0.000,4,1,1.119,0.059,1.060,-0.360,0.000,-0.173,-0.106,0.988,0.034,-0.048,0.072,0.000,0.000,0.266,0.193,2,2,0,2,7,255,1728,200,536,1728
stim,530,530,0,84636.369,0.991,0.048,0.015,0.126,2731,0,635,3215,82,103,479,3678,42,0.000,4,1,1.804,0.055,1.360,-0.240,1.160,-0.172,-0.095,0.971,-0.026,-0.048,0.072,0.000,0.000,0.266,0.193,2,2,0,2,7,255,1728,200,541,1728
stim,530,530,0,84641.369,0.991,0.048,0.015,0.126,2734,0,639,3217,87,105,484,3671,42,0.000,4,1,2.016,0.048,0.080,-0.240,2.000,-0.166,-0.091,0.963,-0.026,0.040,-0.102,0.000,0.000,0.266,0.193,2,2,0,2,7,255,1728,200,546,1728
stim,530,530,0,84646.369,0.991,0.048,0.015,0.126,2744,0,647,3220,82,105,487,3669,42,0.000,4,1,2.365,0.051,-1.700,-0.120,1.640,-0.159,-0.099,0.970,0.032,0.040,-0.128,0.000,0.000,0.266,0.193,2,2,0,2,7,255,1728,200,551,1728
stim,530,530,0,84651.369,0.991,0.048,0.015,0.126,2733,0,624,3213,75,103,485,3667,42,0.000,4,1,2.280,0.092,-2.240,0.060,0.420,-0.158,-0.107,0.980,0.086,-0.034,-0.128,0.000,0.000,0.266,0.193,2,2,0,2,7,255,1728,200,556,1728
stim,530,530,0,84656.369,0.991,0.049,0.015,0.126,2742,0,621,3223,76,109,486,3675,42,0.000,4,1,1.596,0.105,-1.380,0.060,-0.800,-0.162,-0.104,0.989,0.086,-0.060,-0.028,0.000,0.000,0.266,0.193,2,2,0,2,7,255,1728,200,561,1728
stim,530,530,0,84661.369,0.991,0.048,0.015,0.126,2732,0,619,3199,76,116,485,3683,42,0.000,4,1,0.778,0.095,0.020,0.240,-0.740,-0.171,-0.095,0.987,0.074,-0.060,0.048,0.000,0.000,0.266,0.193,2,2,0,2,7,255,1728,200,566,1728
stim,543,543,0,84666.370,0.991,0.048,0.015,0.126,2745,0,617,3181,83,113,485,3676,42,0.000,4,1,0.992,0.048,0.760,0.420,0.480,-0.175,-0.092,0.978,0.004,0.048,0.048,0.000,0.000,0.266,0.193,2,2,0,2,7,255,1728,200,571,1728
stim,543,543,0,84671.369,0.991,0.048,0.015,0.126,2739,0,621,3173,91,120,484,3691,42,0.000,4,1,1.828,0.056,0.260,0.420,1.760,-0.171,-0.099,0.971,-0.028,0.048,-0.034,0.000,0.000,0.266,0.193,2,2,0,2,7,255,1728,200,576,1728
stim,543,543,0,84676.369,0.991,0.048,0.015,0.126,2739,0,619,3215,78,120,488,3703,42,0.000,4,1,2.179,0.028,-0.720,0.480,2.000,-0.163,-0.103,0.971,-0.028,-0.002,-0.098,0.000,0.000,0.266,0.193,2,2,0,2,7,255,1728,200,581,1728
stim,543,543,0,84681.369,0.991,0.048,0.016,0.126,2739,0,615,3211,91,122,488,3703,42,0.000,4,1,1.753,0.070,-1.320,0.540,1.020,-0.157,-0.104,0.978,0.036,-0.060,-0.098,0.000,0.000,0.266,0.193,2,2,0,2,7,255,1728,200,586,1728
stim,563,563,0,84686.369,0.991,0.048,0.016,0.126,2741,0,615,3191,93,111,488,3695,42,0.000,4,1,1.324,0.112,-1.080,0.740,-0.200,-0.160,-0.098,0.983,0.094,-0.060,-0.052,0.000,0.000,0.266,0.193,2,2,0,2,7,255,1728,200,591,1728
stim,563,563,0,84691.369,0.991,0.048,0.016,0.126,2733,0,619,3181,99,118,487,3699,42,0.000,4,1,1.259,0.095,-0.400,0.920,-0.760,-0.167,-0.098,0.982,0.094,-0.016,-0.002,0.000,0.000,0.266,0.193,2,2,0,2,7,255,1728,200,596,1728
stim,576,576,0,84696.369,0.991,0.048,0.016,0.126,2733,0,619,3211,107,117,487,3718,42,0.000,4,1,1.036,0.031,-0.100,0.980,-0.320,-0.174,-0.098,0.980,0.030,0.006,-0.002,0.000,0.000,0.266,0.193,2,2,0,2,7,255,1728,200,601,1728
stim,576,576,0,84701.369,0.991,0.048,0.015,0.126,2737,0,627,3195,107,119,487,3701,42,0.000,4,1,1.296,0.045,-0.280,1.040,0.720,-0.174,-0.098,0.977,-0.042,0.016,-0.008,0.000,0.000,0.266,0.193,2,2,0,2,7,255,1728,200,606,1728
stim,576,576,0,84706.369,0.991,0.048,0.015,0.126,2731,0,623,3195,107,119,487,3705,42,0.000,4,1,1.877,0.047,-0.640,1.020,1.440,-0.170,-0.096,0.977,-0.042,0.022,-0.034,0.000,0.000,0.266,0.193,2,2,0,2,7,255,1728,200,611,1728
stim,576,576,0,84711.369,0.991,0.048,0.015,0.126,2731,0,630,3196,105,133,485,3709,42,0.000,4,1,1.757,0.018,-0.760,0.960,1.260,-0.165,-0.098,0.981,-0.008,0.016,-0.034,0.000,0.000,0.266,0.193,2,2,0,2,7,255,1728,200,616,1728
stim,597,597,0,84716.369,0.991,0.048,0.015,0.126,2747,0,629,3217,101,125,489,3720,42,0.000,4,1,1.430,0.046,-0.640,1.140,0.580,-0.164,-0.099,0.981,0.046,-0.006,-0.008,0.000,0.000,0.266,0.193,2,2,0,2,7,255,1728,200,621,1728
stim,597,597,0,84721.369,0.991,0.048,0.015,0.126,2739,0,625,3209,96,109,488,3723,42,0.000,4,1,1.890,0.053,0.460,1.640,0.820,-0.162,-0.103,0.973,0.050,-0.018,-0.008,0.000,0.000,0.266,0.193,2,2,0,2,7,255,1728,200,626,1728
stim,598,598,0,84726.369,0.991,0.048,0.015,0.126,2745,0,619,3208,96,123,488,3740,42,0.000,4,1,1.712,0.053,-0.580,1.560,0.400,-0.175,-0.097,0.970,0.050,-0.018,-0.086,0.000,0.000,0.266,0.193,2,2,0,2,7,255,1728,200,631,1728
stim,598,598,0,84731.369,0.991,0.048,0.015,0.126,2739,0,621,3191,119,137,487,3751,42,0.000,4,1,3.872,0.024,-3.760,0.900,-0.220,-0.173,-0.089,0.984,-0.002,0.024,-0.086,0.000,0.000,0.266,0.193,2,2,0,2,7,255,1728,200,636,1728
stim,598,598,0,84736.369,0.991,0.048,0.015,0.126,2735,0,618,3195,120,105,487,3745,42,0.000,4,1,2.475,0.082,-2.160,1.140,0.400,-0.176,-0.093,0.999,-0.004,0.082,0.024,0.000,0.000,0.266,0.193,2,2,0,2,7,255,1728,200,641,1728
stim,598,598,0,84741.369,0.991,0.048,0.015,0.126,2736,0,621,3190,123,116,485,3740,42,0.000,4,1,1.526,0.082,0.340,1.200,0.880,-0.175,-0.107,0.999,-0.004,0.082,0.174,0.000,0.000,0.266,0.193,2,2,0,2,7,255,1728,200,646,1728
stim,628,628,0,84746.369,0.991,0.048,0.015,0.126,2731,0,622,3191,125,109,487,3757,42,0.000,4,1,2.264,0.033,1.560,1.140,1.180,-0.173,-0.101,0.983,-0.030,-0.014,0.174,0.000,0.000,0.266,0.193,2,2,0,2,7,255,1728,200,651,1728
stim,628,628,0,84751.369,0.991,0.048,0.015,0.126,2735,0,623,3207,120,112,484,3760,42,0.000,4,1,1.933,0.033,0.960,1.060,1.300,-0.171,-0.092,0.971,-0.030,-0.014,0.026,0.000,0.000,0.266,0.193,2,2,0,2,7,255,1728,200,656,1728
stim,628,628,0,84756.369,0.991,0.048,0.015,0.125,2735,0,629,3193,126,117,486,3751,42,0.000,4,1,1.806,0.058,-0.940,1.060,1.120,-0.168,-0.090,0.969,-0.006,0.058,-0.102,0.000,0.000,0.266,0.193,2,2,0,2,7,255,1728,200,661,1728
stim,628,628,0,84761.369,0.991,0.048,0.015,0.125,2735,0,621,3190,134,121,484,3756,42,0.000,4,1,2.580,0.060,-2.280,1.060,0.580,-0.167,-0.099,0.979,0.016,0.058,-0.102,0.000,0.000,0.266,0.193,2,2,0,2,7,255,1728,200,666,1728
stim,630,630,0,84766.369,0.991,0.048,0.015,0.125,2740,0,624,3199,103,117,487,3764,42,0.000,4,1,2.299,0.023,-2.040,1.060,0.020,-0.170,-0.103,0.990,0.016,-0.016,-0.030,0.000,0.000,0.266,0.193,2,2,0,2,7,255,1728,200,671,1728
stim,630,630,0,84771.369,0.991,0.048,0.015,0.125,2733,0,627,3193,117,115,485,3743,42,0.000,4,1,1.199,0.020,-0.560,1.060,-0.040,-0.175,-0.097,0.993,0.012,-0.016,0.086,0.000,0.000,0.266,0.193,2,2,0,2,7,255,1728,200,676,1728
stim,660,660,0,84776.369,0.991,0.048,0.015,0.125,2745,0,627,3186,108,120,483,3751,42,0.000,4,1,1.268,0.032,0.540,1.060,0.440,-0.178,-0.091,0.986,-0.012,0.030,0.086,0.000,0.000,0.266,0.193,2,2,0,2,7,255,1728,200,681,1728
stim,660,660,0,84781.369,0.991,0.048,0.015,0.125,2740,0,629,3189,117,112,485,3757,42,0.000,4,1,1.762,0.090,0.540,1.060,1.300,-0.177,-0.091,0.977,-0.042,0.080,0.048,0.000,0.000,0.266,0.193,2,2,0,2,7,255,1728,200,686,1728
stim,661,661,0,84786.369,0.991,0.048,0.015,0.125,2745,0,628,3197,127,112,487,3746,42,0.000,4,1,2.009,0.090,-0.440,0.940,1.720,-0.171,-0.098,0.973,-0.042,0.080,-0.038,0.000,0.000,0.266,0.193,2,2,0,2,7,255,1728,200,691,1728
stim,661,661,0,84791.369,0.991,0.048,0.015,0.125,2737,0,629,3211,156,120,486,3755,42,0.000,4,1,2.171,0.014,-1.360,0.920,1.420,-0.167,-0.099,0.977,-0.014,0.000,-0.050,0.000,0.000,0.266,0.193,2,2,0,2,7,255,1728,200,696,1728
stim,661,661,0,84796.369,0.991,0.048,0.015,0.125,2743,0,630,3205,157,121,485,3768,42,0.000,4,1,1.861,0.030,-1.480,0.980,0.560,-0.167,-0.098,0.984,0.030,-0.004,-0.050,0.000,0.000,0.266,0.193,2,2,0,2,7,255,1728,200,701,1728
stim,661,661,0,84801.369,0.991,0.048,0.015,0.125,2735,0,630,3212,146,121,487,3767,42,0.000,4,1,1.344,0.030,-0.920,0.980,0.000,-0.170,-0.095,0.986,0.030,-0.004,0.024,0.000,0.000,0.266,0.193,2,2,0,2,7,255,1728,200,706,1728
stim,694,694,0,84806.369,0.991,0.048,0.015,0.125,2739,0,631,3212,163,114,491,3768,42,0.000,4,1,1.135,0.043,-0.240,1.100,0.140,-0.175,-0.095,0.983,0.028,0.032,0.024,0.000,0.000,0.266,0.193,2,2,0,2,7,255,1728,200,711,1728
stim,694,694,0,84811.369,0.991,0.048,0.014,0.125,2743,0,631,3208,163,133,488,3749,42,0.000,4,1,1.401,0.037,-0.120,1.100,0.860,-0.176,-0.096,0.979,-0.018,0.032,0.024,0.000,0.000,0.266,0.193,2,2,0,2,7,255,1728,200,716,1728
stim,694,694,0,84816.369,0.991,0.048,0.014,0.125,2735,0,629,3208,135,133,485,3770,42,0.000,4,1,2.005,0.033,-0.500,1.100,1.600,-0.173,-0.096,0.976,-0.020,0.026,-0.016,0.000,0.000,0.266,0.193,2,2,0,2,7,255,1728,200,721,1728
stim,694,694,0,84821.369,0.991,0.048,0.014,0.125,2743,0,631,3221,109,123,487,3757,42,0.000,4,1,2.203,0.026,-1.040,1.100,1.600,-0.169,-0.096,0.976,-0.020,0.016,-0.052,0.000,0.000,0.266,0.193,2,2,0,2,7,255,1728,200,726,1728
stim,694,694,0,84826.369,0.991,0.048,0.014,0.125,2735,0,633,3211,120,117,488,3741,42,0.000,4,1,2.051,0.020,-1.280,1.220,1.040,-0.166,-0.097,0.980,0.018,0.008,-0.052,0.000,0.000,0.266,0.193,2,2,0,2,7,255,1728,200,731,1728
stim,694,694,0,84831.369,0.991,0.048,0.014,0.125,2745,0,632,3199,116,133,489,3751,42,0.000,4,1,1.714,0.048,-1.100,1.280,0.300,-0.167,-0.098,0.982,0.048,-0.006,-0.022,0.000,0.000,0.266,0.193,2,2,0,2,7,255,1728,200,736,1728
stim,728,728,0,84836.369,0.991,0.048,0.014,0.125,2739,0,632,3210,115,149,488,3739,42,0.000,4,1,1.552,0.048,-0.660,1.400,0.120,-0.172,-0.097,0.981,0.048,-0.006,-0.002,0.000,0.000,0.266,0.193,2,2,0,2,7,255,1728,200,741,1728
stim,728,728,0,84841.369,0.991,0.048,0.014,0.125,2740,0,631,3198,111,115,487,3735,42,0.000,4,1,1.673,0.013,-0.480,1.460,0.660,-0.174,-0.096,0.979,0.004,0.012,-0.002,0.000,0.000,0.266,0.193,2,2,0,2,7,255,1728,200,746,1728
stim,728,728,0,84846.369,0.991,0.048,0.014,0.125,2743,0,630,3199,123,117,486,3725,42,0.000,4,1,2.097,0.023,-0.540,1.520,1.340,-0.173,-0.095,0.979,-0.006,0.022,-0.018,0.000,0.000,0.266,0.193,2,2,0,2,7,255,1728,200,751,1728
stim,728,728,0,84851.369,0.991,0.048,0.014,0.125,2736,0,627,3197,120,113,487,3748,42,0.000,4,1,2.391,0.023,-0.720,1.520,1.700,-0.168,-0.095,0.976,-0.006,0.022,-0.022,0.000,0.000,0.266,0.193,2,2,0,2,7,255,1728,200,756,1728
stim,728,728,0,84856.369,0.991,0.048,0.014,0.125,2736,0,631,3211,123,106,484,3719,42,0.000,4,1,3.084,0.012,0.000,2.120,2.240,-0.168,-0.107,0.973,0.006,0.010,-0.060,0.000,0.000,0.266,0.193,2,2,0,2,7,255,1728,200,761,1728
stim,728,728,0,84861.369,0.991,0.048,0.014,0.125,2739,0,648,3197,135,109,487,3732,42,0.000,4,1,2.689,0.039,-2.180,1.500,0.480,-0.168,-0.098,0.978,0.038,-0.008,-0.060,0.000,0.000,0.266,0.193,2,2,0,2,7,255,1728,200,766,1728
stim,752,752,0,84866.369,0.991,0.048,0.014,0.125,2734,0,627,3193,137,102,488,3741,42,0.000,4,1,2.874,0.035,-2.360,1.620,-0.260,-0.173,-0.089,0.988,0.034,-0.008,-0.034,0.000,0.000,0.266,0.193,2,2,0,2,7,255,1728,200,771,1728
stim,752,752,0,84871.369,0.991,0.048,0.014,0.125,2744,0,623,3195,147,112,490,3705,42,0.000,4,1,2.038,0.042,-0.720,1.860,0.420,-0.179,-0.098,0.990,0.034,0.024,0.060,0.000,0.000,0.266,0.193,2,2,0,2,7,255,1728,200,776,1728
stim,752,752,0,84876.369,0.991,0.048,0.014,0.125,2732,0,629,3207,152,131,489,3741,42,0.000,4,1,2.116,0.042,0.260,1.680,1.260,-0.179,-0.107,0.984,-0.034,0.024,0.060,0.000,0.000,0.266,0.193,2,2,0,2,7,255,1728,200,781,1728
stim,752,752,0,84881.369,0.991,0.048,0.014,0.125,2731,0,633,3210,151,136,488,3743,42,0.000,4,1,2.778,0.040,0.440,1.740,2.120,-0.174,-0.101,0.977,-0.034,-0.022,0.054,0.000,0.000,0.266,0.193,2,2,0,2,7,255,1728,200,786,1728
stim,752,752,0,84886.369,0.991,0.048,0.014,0.125,2735,0,631,3209,150,121,488,3703,42,0.000,4,1,2.714,0.031,-0.220,1.680,2.120,-0.169,-0.095,0.973,-0.022,-0.022,-0.036,0.000,0.000,0.266,0.193,2,2,0,2,7,255,1728,200,791,1728
stim,752,752,0,84891.369,0.991,0.048,0.013,0.125,2732,0,615,3212,139,117,486,3759,42,0.000,4,1,2.549,0.032,-1.260,1.780,1.320,-0.167,-0.097,0.976,0.030,-0.010,-0.060,0.000,0.000,0.266,0.193,2,2,0,2,7,255,1728,200,796,1728
stim,784,784,0,84896.369,0.991,0.048,0.013,0.125,2739,0,635,3198,141,109,489,3789,42,0.000,4,1,2.384,0.049,-1.500,1.840,0.220,-0.167,-0.103,0.982,0.048,-0.010,-0.060,0.000,0.000,0.266,0.193,2,2,0,2,7,255,1728,200,801,1728
stim,784,784,0,84901.369,0.991,0.048,0.013,0.125,2740,0,611,3210,143,104,491,3797,42,0.000,4,1,2.110,0.065,-1.020,1.840,-0.160,-0.174,-0.104,0.986,0.048,-0.044,0.008,0.000,0.000,0.266,0.193,2,2,0,2,7,255,1728,200,806,1728
stim,784,784,0,84906.369,0.991,0.048,0.013,0.125,2739,0,612,3208,137,111,487,3784,42,0.000,4,1,1.892,0.044,-0.280,1.840,0.340,-0.179,-0.096,0.985,-0.004,-0.044,0.048,0.000,0.000,0.266,0.193,2,2,0,2,7,255,1728,200,811,1728
stim,784,784,0,84911.369,0.991,0.048,0.013,0.125,2731,0,606,3205,133,107,488,3765,42,0.000,4,1,2.315,0.054,0.080,1.900,1.320,-0.180,-0.092,0.980,-0.036,0.040,0.048,0.000,0.000,0.266,0.193,2,2,0,2,7,255,1728,200,816,1728
stim,784,784,0,84916.369,0.991,0.048,0.013,0.124,2739,0,613,3212,141,105,487,3745,42,0.000,4,1,2.749,0.054,-0.160,1.900,1.980,-0.175,-0.094,0.978,-0.036,0.040,0.002,0.000,0.000,0.266,0.193,2,2,0,2,7,255,1728,200,821,1728
stim,784,784,0,84921.369,0.991,0.048,0.013,0.124,2729,0,605,3195,137,102,488,3741,42,0.000,4,1,2.680,0.036,-0.640,1.880,1.800,-0.170,-0.101,0.978,-0.006,0.036,-0.026,0.000,0.000,0.266,0.193,2,2,0,2,7,255,1728,200,826,1728
stim,815,815,0,84926.369,0.991,0.048,0.013,0.124,2729,0,611,3197,128,119,487,3735,42,0.000,4,1,2.331,0.038,-0.880,1.880,1.060,-0.170,-0.100,0.979,0.026,-0.028,-0.026,0.000,0.000,0.266,0.193,2,2,0,2,7,255,1728,200,831,1728
stim,815,815,0,84931.369,0.991,0.048,0.013,0.124,2729,0,611,3217,135,104,485,3739,42,0.000,4,1,2.175,0.038,-0.880,1.940,0.440,-0.173,-0.097,0.982,0.026,-0.028,-0.014,0.000,0.000,0.266,0.193,2,2,0,2,7,255,1728,200,836,1728
stim,815,815,0,84936.369,0.991,0.048,0.013,0.124,2738,0,607,3199,133,113,486,3742,42,0.000,4,1,2.060,0.022,-0.580,1.940,0.380,-0.177,-0.095,0.983,0.022,0.004,0.012,0.000,0.000,0.266,0.193,2,2,0,2,7,255,1728,200,841,1728
stim,815,815,0,84941.369,0.991,0.048,0.013,0.124,2729,0,609,3189,135,127,488,3724,42,0.000,4,1,2.219,0.032,-0.400,1.940,1.000,-0.181,-0.096,0.982,-0.010,0.030,0.028,0.000,0.000,0.266,0.193,2,2,0,2,7,255,1728,200,846,1728
stim,815,815,0,84946.369,0.991,0.048,0.013,0.124,2739,0,609,3213,137,121,488,3709,42,0.000,4,1,2.496,0.044,-0.460,1.860,1.600,-0.179,-0.097,0.982,-0.032,0.030,0.028,0.000,0.000,0.266,0.193,2,2,0,2,7,255,1728,200,851,1728
stim,815,815,0,84951.369,0.991,0.048,0.013,0.124,2739,0,619,3211,141,122,480,3709,42,0.000,4,1,2.722,0.036,-0.580,1.920,1.840,-0.176,-0.098,0.981,-0.032,0.016,0.022,0.000,0.000,0.266,0.193,2,2,0,2,7,255,1728,200,856,1728
stim,847,847,0,84956.369,0.991,0.048,0.012,0.124,2731,0,626,3213,147,119,484,3701,42,0.000,4,1,2.433,0.006,-0.700,1.800,1.480,-0.175,-0.099,0.983,-0.004,0.004,0.022,0.000,0.000,0.266,0.193,2,2,0,2,7,255,1728,200,861,1728
stim,847,847,0,84961.369,0.991,0.048,0.012,0.124,2727,0,611,3199,151,117,481,3696,42,0.000,4,1,2.147,0.014,-0.640,1.860,0.860,-0.176,-0.100,0.982,0.000,-0.014,0.022,0.000,0.000,0.266,0.193,2,2,0,2,7,255,1728,200,866,1728
stim,847,847,0,84966.369,0.991,0.048,0.012,0.124,2729,0,604,3211,151,123,485,3689,42,0.000,4,1,2.027,0.014,-0.580,1.860,0.560,-0.179,-0.099,0.984,0.000,-0.014,0.030,0.000,0.000,0.266,0.193,2,2,0,2,7,255,1728,200,871,1728
stim,847,847,0,84971.369,0.991,0.048,0.012,0.124,2723,0,612,3217,152,108,483,3709,42,0.000,4,1,1.918,0.024,-0.580,1.720,0.620,-0.183,-0.098,0.985,-0.024,0.002,0.040,0.000,0.000,0.266,0.193,2,2,0,2,7,255,1728,200,876,1728
stim,847,847,0,84976.369,0.991,0.048,0.012,0.124,2717,0,615,3211,146,119,485,3701,42,0.000,4,1,1.998,0.052,-0.640,1.540,1.100,-0.184,-0.098,0.985,-0.050,0.016,0.056,0.000,0.000,0.266,0.193,2,2,0,2,7,255,1728,200,881,1728
stim,847,847,0,84981.369,0.991,0.048,0.012,0.124,2719,0,631,3211,154,110,480,3700,42,0.000,4,1,2.153,0.052,-0.560,1.480,1.460,-0.182,-0.098,0.985,-0.050,0.016,0.056,0.000,0.000,0.266,0.193,2,2,0,2,7,255,1728,200,886,1728
stim,896,896,0,84986.369,0.991,0.048,0.012,0.124,2713,0,627,3217,157,119,485,3706,42,0.000,4,1,2.126,0.039,-0.440,1.420,1.520,-0.180,-0.100,0.986,-0.036,0.016,0.056,0.000,0.000,0.266,0.193,2,2,0,2,7,255,1728,200,891,1728
stim,896,896,0,84991.369,0.991,0.048,0.012,0.124,2717,0,629,3220,159,126,488,3715,42,0.000,4,1,1.769,0.020,-0.380,1.280,1.160,-0.178,-0.100,0.985,-0.018,-0.008,0.056,0.000,0.000,0.266,0.193,2,2,0,2,7,255,1728,200,896,1728
stim,896,896,0,84996.369,0.991,0.047,0.012,0.124,2717,0,635,3210,159,135,483,3711,42,0.000,4,1,1.417,0.024,-0.380,1.160,0.720,-0.180,-0.101,0.984,-0.018,-0.016,0.052,0.000,0.000,0.266,0.193,2,2,0,2,7,255,1728,200,901,1728
stim,896,896,0,85001.369,0.991,0.047,0.012,0.124,2723,0,625,3200,151,138,480,3731,42,0.000,4,1,1.278,0.029,-0.440,1.100,0.480,-0.182,-0.099,0.984,-0.024,-0.016,0.046,0.000,0.000,0.266,0.193,2,2,0,2,7,255,1728,200,906,1728
stim,897,897,0,85006.369,0.991,0.047,0.012,0.124,2717,0,628,3218,161,123,485,3695,42,0.000,4,1,1.178,0.042,-0.500,0.920,0.540,-0.184,-0.100,0.984,-0.042,0.000,0.044,0.000,0.000,0.266,0.193,2,2,0,2,7,255,1728,200,911,1728
stim,897,897,0,85011.369,0.991,0.047,0.012,0.124,2717,0,622,3213,151,117,485,3659,42,0.000,4,1,1.205,0.052,-0.440,0.860,0.720,-0.184,-0.098,0.985,-0.052,0.000,0.044,0.000,0.000,0.266,0.193,2,2,0,2,7,255,1728,200,916,1728
stim,897,897,0,85016.369,0.991,0.047,0.012,0.124,2725,0,627,3211,157,119,483,3646,42,0.000,4,1,1.196,0.053,-0.320,0.720,0.900,-0.183,-0.098,0.985,-0.052,0.010,0.054,0.000,0.000,0.266,0.193,2,2,0,2,7,255,1728,200,921,1728
stim,897,897,0,85021.369,0.991,0.047,0.012,0.124,2712,0,621,3207,160,131,479,3705,42,0.000,4,1,1.018,0.037,-0.260,0.600,0.780,-0.181,-0.099,0.983,-0.036,0.010,0.054,0.000,0.000,0.266,0.193,2,2,0,2,7,255,1728,200,926,1728
stim,898,898,0,85026.371,0.991,0.047,0.012,0.124,2715,0,620,3219,157,135,483,3711,42,0.000,4,1,0.811,0.024,-0.260,0.480,0.600,-0.181,-0.099,0.983,-0.024,-0.002,0.032,0.000,0.000,0.266,0.193,2,2,0,2,7,255,1728,200,931,1728
stim,898,898,0,85031.369,0.991,0.047,0.012,0.124,2725,0,621,3200,162,126,484,3701,42,0.000,4,1,0.693,0.024,-0.380,0.420,0.400,-0.181,-0.097,0.982,-0.024,-0.002,0.028,0.000,0.000,0.266,0.193,2,2,0,2,7,255,1728,200,936,1728
stim,928,928,0,85036.369,0.991,0.047,0.012,0.124,2709,0,623,3211,167,121,483,3733,42,0.000,4,1,0.722,0.027,-0.560,0.360,0.280,-0.182,-0.096,0.983,-0.024,0.012,0.028,0.000,0.000,0.266,0.193,2,2,0,2,7,255,1728,200,941,1728
stim,928,928,0,85041.369,0.991,0.047,0.012,0.124,2714,0,624,3209,165,133,485,3738,42,0.000,4,1,0.684,0.038,-0.500,0.240,0.400,-0.183,-0.094,0.985,-0.026,0.028,0.030,0.000,0.000,0.266,0.193,2,2,0,2,7,255,1728,200,946,1728
stim,928,928,0,85046.369,0.991,0.047,0.012,0.124,2715,0,625,3207,169,127,483,3749,42,0.000,4,1,0.637,0.045,-0.320,0.180,0.520,-0.182,-0.094,0.984,-0.024,0.038,0.034,0.000,0.000,0.266,0.193,2,2,0,2,7,255,1728,200,951,1728
stim,928,928,0,85051.369,0.991,0.047,0.012,0.124,2710,0,621,3209,170,157,480,3771,42,0.000,4,1,0.757,0.043,-0.200,0.120,0.720,-0.181,-0.096,0.983,-0.020,0.038,0.034,0.000,0.000,0.266,0.193,2,2,0,2,7,255,1728,200,956,1728
stim,928,928,0,85056.369,0.991,0.047,0.012,0.124,2711,0,629,3217,166,137,487,3802,42,0.000,4,1,0.749,0.025,-0.260,0.060,0.700,-0.180,-0.096,0.981,-0.018,0.018,0.028,0.000,0.000,0.266,0.193,2,2,0,2,7,255,1728,200,961,1728
stim,928,928,0,85061.369,0.991,0.047,0.012,0.124,2710,0,633,3206,171,151,486,3831,42,0.000,4,1,0.728,0.021,-0.440,0.000,0.580,-0.179,-0.096,0.981,-0.010,0.018,0.008,0.000,0.000,0.266,0.193,2,2,0,2,7,255,1728,200,966,1728
stim,928,928,0,85066.370,0.991,0.047,0.012,0.124,2708,0,627,3207,167,143,483,3826,42,0.000,4,1,0.738,0.020,-0.620,0.000,0.400,-0.179,-0.095,0.981,-0.008,0.018,0.006,0.000,0.000,0.266,0.193,2,2,0,2,7,255,1728,200,971,1728
stim,928,928,0,85071.369,0.991,0.047,0.012,0.124,2723,0,629,3205,163,144,487,3811,42,0.000,4,1,0.789,0.022,-0.680,0.000,0.400,-0.181,-0.095,0.981,-0.008,0.020,0.006,0.000,0.000,0.266,0.193,2,2,0,2,7,255,1728,200,976,1728
stim,943,943,0,85076.370,0.991,0.047,0.012,0.124,2717,0,629,3192,169,151,484,3821,42,0.000,4,1,0.726,0.027,-0.500,-0.080,0.520,-0.181,-0.096,0.983,-0.018,0.020,0.010,0.000,0.000,0.266,0.193,2,2,0,2,7,255,1728,200,981,1728
stim,943,943,0,85081.370,0.991,0.047,0.012,0.124,2712,0,624,3211,168,149,484,3827,42,0.000,4,1,0.766,0.024,-0.300,-0.080,0.700,-0.179,-0.099,0.982,-0.018,0.016,0.014,0.000,0.000,0.266,0.193,2,2,0,2,7,255,1728,200,986,1728
stim,960,960,0,85086.369,0.991,0.047,0.012,0.124,2713,0,629,3206,174,144,485,3831,42,0.000,4,1,0.906,0.017,-0.360,-0.140,0.820,-0.178,-0.098,0.981,-0.014,-0.010,0.014,0.000,0.000,0.266,0.193,2,2,0,2,7,255,1728,200,991,1728
stim,960,960,0,85091.369,0.991,0.047,0.012,0.124,2713,0,629,3199,181,151,486,3828,42,0.000,4,1,0.778,0.016,-0.420,-0.140,0.640,-0.177,-0.100,0.980,-0.004,-0.016,0.002,0.000,0.000,0.266,0.193,2,2,0,2,7,255,1728,200,996,1728
stim,960,960,0,85096.369,0.991,0.047,0.012,0.124,2714,0,627,3199,176,153,485,3833,42,0.000,4,1,0.691,0.022,-0.560,-0.060,0.400,-0.177,-0.099,0.980,0.000,-0.022,-0.002,0.000,0.000,0.266,0.193,2,2,0,2,7,255,1728,200,1001,1728
stim,960,960,0,85101.369,0.991,0.047,0.012,0.124,2723,0,629,3195,176,153,487,3828,42,0.000,4,1,0.666,0.022,-0.620,-0.200,0.140,-0.179,-0.099,0.981,0.000,-0.022,-0.002,0.000,0.000,0.266,0.193,2,2,0,2,7,255,1728,200,1006,1728
stim,1023,1023,0,85106.369,0.991,0.047,0.012,0.124,2713,0,625,3211,173,150,487,3835,42,0.000,4,1,0.501,0.018,-0.480,-0.120,0.080,-0.182,-0.098,0.983,-0.014,-0.012,0.004,0.000,0.000,0.266,0.193,2,2,0,2,7,255,1728,200,1011,1728
stim,1023,1023,0,85111.370,0.991,0.047,0.012,0.124,2721,0,631,3189,164,151,485,3833,42,0.000,4,1,0.534,0.022,-0.360,-0.200,0.340,-0.181,-0.098,0.983,-0.022,0.002,0.024,0.000,0.000,0.266,0.193,2,2,0,2,7,255,1728,200,1016,1728
stim,1023,1023,0,85116.369,0.991,0.047,0.012,0.124,2719,0,623,3199,171,152,485,3832,42,0.000,4,1,0.558,0.022,-0.180,-0.260,0.460,-0.180,-0.098,0.982,-0.022,0.002,0.024,0.000,0.000,0.266,0.193,2,2,0,2,7,255,1728,200,1021,1728
stim,1023,1023,0,85121.369,0.991,0.047,0.012,0.124,2712,0,627,3197,173,143,487,3838,42,0.000,4,1,0.636,0.021,-0.300,-0.320,0.460,-0.178,-0.099,0.981,-0.020,-0.006,0.018,0.000,0.000,0.266,0.193,2,2,0,2,7,255,1728,200,1026,1728
stim,1023,1023,0,85126.369,0.991,0.047,0.012,0.124,2718,0,629,3207,171,151,485,3835,42,0.000,4,1,0.550,0.016,-0.300,-0.380,0.260,-0.177,-0.100,0.981,-0.004,-0.016,0.006,0.000,0.000,0.266,0.193,2,2,0,2,7,255,1728,200,1031,1728
stim,1023,1023,0,85131.369,0.991,0.047,0.012,0.124,2708,0,627,3193,169,151,485,3816,42,0.000,4,1,0.402,0.019,-0.240,-0.320,-0.040,-0.177,-0.099,0.982,0.006,-0.018,0.006,0.000,0.000,0.266,0.193,2,2,0,2,7,255,1728,200,1036,1728
stim,1023,1023,0,85136.369,0.991,0.047,0.012,0.124,2707,0,623,3191,160,151,483,3837,42,0.000,4,1,0.510,0.019,-0.300,-0.380,-0.160,-0.179,-0.098,0.982,0.006,-0.018,0.010,0.000,0.000,0.266,0.193,2,2,0,2,7,255,1728,200,1041,1728
stim,1023,1023,0,85141.369,0.991,0.047,0.012,0.124,2706,0,631,3191,158,153,479,3837,42,0.000,4,1,0.591,0.013,-0.360,-0.440,-0.160,-0.181,-0.097,0.983,-0.010,-0.008,0.016,0.000,0.000,0.266,0.193,2,2,0,2,7,255,1728,200,1046,1728
stim,1023,1023,0,85146.369,0.991,0.047,0.012,0.124,2711,0,631,3184,171,151,483,3833,42,0.000,4,1,0.382,0.017,-0.120,-0.360,-0.040,-0.180,-0.097,0.982,-0.016,0.006,0.016,0.000,0.000,0.266,0.193,2,2,0,2,7,255,1728,200,1051,1728
stim,1023,1023,0,85151.369,0.991,0.047,0.012,0.124,2701,0,624,3191,173,153,484,3835,42,0.000,4,1,0.550,0.017,-0.180,-0.500,0.140,-0.179,-0.098,0.982,-0.016,0.006,0.016,0.000,0.000,0.266,0.193,2,2,0,2,7,255,1728,200,1056,1728
stim,1023,1023,0,85156.369,0.991,0.047,0.012,0.124,2709,0,628,3189,165,151,487,3825,42,0.000,4,1,0.578,0.010,-0.120,-0.560,0.080,-0.179,-0.097,0.982,-0.010,-0.002,0.016,0.000,0.000,0.266,0.193,2,2,0,2,7,255,1728,200,1061,1728
stim,1023,1023,0,85161.369,0.991,0.047,0.012,0.124,2705,0,629,3195,166,153,486,3847,42,0.000,4,1,0.591,0.010,-0.240,-0.540,0.020,-0.180,-0.097,0.983,-0.010,-0.002,0.016,0.000,0.000,0.266,0.193,2,2,0,2,7,255,1728,200,1066,1728
stim,1023,1023,0,85166.371,0.991,0.047,0.012,0.124,2713,0,628,3206,167,153,487,3837,42,0.000,4,1,0.787,0.008,-0.300,-0.680,0.260,-0.178,-0.093,0.983,-0.006,0.006,0.018,0.000,0.000,0.266,0.193,2,2,0,2,7,255,1728,200,1071,1728
stim,1023,1023,0,85171.369,0.991,0.047,0.012,0.124,2713,0,627,3192,162,151,488,3837,42,0.000,4,1,0.557,0.013,0.200,-0.480,0.200,-0.175,-0.097,0.982,0.012,0.006,0.018,0.000,0.000,0.266,0.193,2,2,0,2,7,255,1728,200,1076,1728
stim,1057,1057,0,85176.369,0.991,0.047,0.012,0.124,2713,0,636,3193,165,151,489,3840,42,0.000,4,1,0.758,0.014,0.060,-0.600,-0.460,-0.178,-0.101,0.979,0.012,-0.008,0.002,0.000,0.000,0.266,0.193,2,2,0,2,7,255,1728,200,1081,1728
stim,1057,1057,0,85181.369,0.991,0.047,0.012,0.124,2703,0,635,3188,165,157,493,3846,42,0.000,4,1,1.259,0.016,-0.600,-0.720,-0.840,-0.182,-0.098,0.981,-0.014,-0.008,0.002,0.000,0.000,0.266,0.193,2,2,0,2,7,255,1728,200,1086,1728
stim,1057,1057,0,85186.369,0.991,0.047,0.012,0.124,2706,0,627,3208,157,155,489,3840,42,0.000,4,1,0.866,0.026,-0.480,-0.720,0.020,-0.183,-0.091,0.983,-0.026,0.000,0.006,0.000,0.000,0.266,0.193,2,2,0,2,7,255,1728,200,1091,1728
stim,1057,1057,0,85191.369,0.991,0.047,0.012,0.124,2709,0,629,3195,158,154,489,3837,42,0.000,4,1,1.284,0.058,0.080,-0.720,1.060,-0.179,-0.091,0.983,-0.026,0.052,0.018,0.000,0.000,0.266,0.193,2,2,0,2,7,255,1728,200,1096,1728
stim,1119,1119,0,85196.369,0.991,0.047,0.012,0.124,2709,0,631,3192,172,155,493,3827,42,0.000,4,1,1.124,0.052,0.140,-0.600,0.940,-0.175,-0.096,0.981,0.004,0.052,0.018,0.000,0.000,0.266,0.193,2,2,0,2,7,255,1728,200,1101,1728
stim,1119,1119,0,85201.369,0.991,0.047,0.012,0.124,2717,0,633,3188,169,155,491,3835,42,0.000,4,1,0.628,0.028,-0.120,-0.600,0.140,-0.173,-0.099,0.979,0.028,-0.002,-0.008,0.000,0.000,0.266,0.193,2,2,0,2,7,255,1728,200,1106,1728
stim,1119,1119,0,85206.369,0.991,0.047,0.012,0.124,2712,0,652,3198,159,152,488,3833,42,0.000,4,1,0.760,0.033,-0.240,-0.600,-0.400,-0.175,-0.097,0.979,0.028,-0.018,-0.026,0.000,0.000,0.266,0.193,2,2,0,2,7,255,1728,200,1111,1728
stim,1119,1119,0,85211.369,0.991,0.047,0.012,0.124,2708,0,637,3183,153,152,487,3835,42,0.000,4,1,0.793,0.027,-0.240,-0.600,-0.460,-0.178,-0.095,0.979,0.020,-0.018,-0.026,0.000,0.000,0.266,0.193,2,2,0,2,7,255,1728,200,1116,1728
stim,1119,1119,0,85216.369,0.991,0.047,0.012,0.124,2710,0,629,3196,145,151,489,3847,42,0.000,4,1,0.701,0.016,-0.360,-0.600,-0.040,-0.180,-0.094,0.981,-0.008,0.014,-0.022,0.000,0.000,0.266,0.193,2,2,0,2,7,255,1728,200,1121,1728
stim,1119,1119,0,85221.369,0.991,0.047,0.012,0.124,2709,0,631,3195,141,156,488,3853,42,0.000,4,1,0.837,0.021,-0.360,-0.600,0.460,-0.179,-0.096,0.981,-0.016,0.014,0.000,0.000,0.000,0.266,0.193,2,2,0,2,7,255,1728,200,1126,1728
stim,1119,1119,0,85226.369,0.991,0.047,0.012,0.124,2711,0,635,3183,135,160,485,3830,42,0.000,4,1,0.892,0.016,-0.120,-0.540,0.700,-0.176,-0.099,0.981,-0.016,0.004,0.000,0.000,0.000,0.266,0.193,2,2,0,2,7,255,1728,200,1131,1728
stim,1119,1119,0,85231.369,0.991,0.047,0.012,0.124,2709,0,631,3197,123,167,491,3827,42,0.000,4,1,0.740,0.029,0.080,-0.540,0.500,-0.173,-0.098,0.980,0.008,-0.028,-0.004,0.000,0.000,0.266,0.193,2,2,0,2,7,255,1728,200,1136,1728
stim,1119,1119,0,85236.369,0.991,0.047,0.012,0.124,2711,0,628,3197,111,167,489,3848,42,0.000,4,1,0.482,0.044,-0.040,-0.480,0.020,-0.173,-0.095,0.979,0.034,-0.028,-0.018,0.000,0.000,0.266,0.193,2,2,0,2,7,255,1728,200,1141,1728
stim,1119,1119,0,85241.369,0.991,0.047,0.012,0.124,2702,0,635,3188,118,171,487,3837,42,0.000,4,1,0.607,0.035,-0.360,-0.400,-0.280,-0.175,-0.096,0.977,0.034,-0.006,-0.034,0.000,0.000,0.266,0.193,2,2,0,2,7,255,1728,200,1146,1728
stim,1119,1119,0,85246.369,0.991,0.047,0.012,0.124,2707,0,647,3184,108,165,489,3838,42,0.000,4,1,0.697,0.016,-0.540,-0.340,-0.280,-0.177,-0.094,0.979,0.016,0.000,-0.034,0.000,0.000,0.266,0.193,2,2,0,2,7,255,1728,200,1151,1728
stim,1119,1119,0,85251.369,0.991,0.047,0.012,0.124,2702,0,645,3181,105,169,486,3839,42,0.000,4,1,0.597,0.016,-0.480,-0.340,-0.100,-0.179,-0.094,0.980,0.000,0.016,-0.018,0.000,0.000,0.266,0.193,2,2,0,2,7,255,1728,200,1156,1728
stim,1119,1119,0,85256.369,0.991,0.047,0.012,0.124,2701,0,635,3183,109,166,488,3837,42,0.000,4,1,0.477,0.020,-0.360,-0.280,0.140,-0.178,-0.094,0.982,-0.002,0.020,-0.010,0.000,0.000,0.266,0.193,2,2,0,2,7,255,1728,200,1161,1728
stim,1119,1119,0,85261.369,0.991,0.047,0.012,0.124,2713,0,629,3188,112,169,492,3837,42,0.000,4,1,0.494,0.020,-0.160,-0.340,0.320,-0.178,-0.094,0.980,-0.002,0.020,-0.008,0.000,0.000,0.266,0.193,2,2,0,2,7,255,1728,200,1166,1728
stim,1135,1135,0,85266.371,0.991,0.047,0.012,0.124,2701,0,635,3197,105,169,487,3854,42,0.000,4,1,0.414,0.016,-0.160,-0.280,0.260,-0.177,-0.095,0.980,-0.002,0.016,-0.008,0.000,0.000,0.266,0.193,2,2,0,2,7,255,1728,200,1171,1728
stim,1135,1135,0,85271.369,0.991,0.047,0.012,0.124,2701,0,639,3211,119,173,491,3853,42,0.000,4,1,0.420,0.006,-0.280,-0.280,0.140,-0.176,-0.096,0.978,0.004,0.004,-0.012,0.000,0.000,0.266,0.193,2,2,0,2,7,255,1728,200,1176,1728
stim,1135,1135,0,85276.369,0.991,0.047,0.012,0.124,2708,0,635,3209,103,172,491,3840,42,0.000,4,1,0.528,0.009,-0.480,-0.220,0.020,-0.177,-0.094,0.980,0.008,0.004,-0.012,0.000,0.000,0.266,0.193,2,2,0,2,7,255,1728,200,1181,1728
stim,1135,1135,0,85281.369,0.991,0.047,0.012,0.124,2705,0,635,3219,103,173,491,3849,42,0.000,4,1,0.530,0.011,-0.480,-0.220,-0.040,-0.177,-0.095,0.981,0.008,0.008,-0.010,0.000,0.000,0.266,0.193,2,2,0,2,7,255,1728,200,1186,1728
stim,1200,1200,0,85286.369,0.991,0.046,0.012,0.124,2706,0,629,3200,101,171,491,3835,42,0.000,4,1,0.477,0.008,-0.400,-0.220,0.140,-0.178,-0.095,0.981,0.002,0.008,-0.002,0.000,0.000,0.266,0.193,2,2,0,2,7,255,1728,200,1191,1728
stim,1200,1200,0,85291.369,0.991,0.046,0.012,0.124,2707,0,628,3206,87,167,491,3845,42,0.000,4,1,0.539,0.010,-0.220,-0.220,0.440,-0.178,-0.094,0.980,-0.006,0.008,-0.002,0.000,0.000,0.266,0.193,2,2,0,2,7,255,1728,200,1196,1728
stim,1200,1200,0,85296.369,0.991,0.046,0.012,0.124,2701,0,633,3213,85,164,491,3860,42,0.000,4,1,0.591,0.008,-0.100,-0.160,0.560,-0.175,-0.095,0.979,-0.006,0.006,-0.006,0.000,0.000,0.266,0.193,2,2,0,2,7,255,1728,200,1201,1728
stim,1200,1200,0,85301.369,0.991,0.046,0.012,0.124,2699,0,633,3207,87,163,489,3837,42,0.000,4,1,0.517,0.014,-0.220,-0.160,0.440,-0.174,-0.095,0.978,0.014,-0.002,-0.024,0.000,0.000,0.266,0.193,2,2,0,2,7,255,1728,200,1206,1728
stim,1200,1200,0,85306.369,0.991,0.046,0.012,0.124,2699,0,632,3206,112,167,491,3845,42,0.000,4,1,0.561,0.021,-0.460,0.020,0.320,-0.170,-0.096,0.976,0.020,-0.006,-0.034,0.000,0.000,0.266,0.193,2,2,0,2,7,255,1728,200,1211,1728
stim,1200,1200,0,85311.369,0.991,0.046,0.012,0.123,2699,0,631,3197,96,166,492,3849,42,0.000,4,1,2.918,0.030,1.480,1.060,2.280,-0.169,-0.108,0.963,0.020,-0.022,-0.064,0.000,0.000,0.266,0.193,2,2,0,2,7,255,1728,200,1216,1728
stim,1202,1202,0,85316.369,0.991,0.047,0.012,0.123,2701,0,633,3205,74,160,492,3845,42,0.000,4,1,2.994,0.024,-2.980,-0.220,-0.180,-0.179,-0.092,0.971,0.010,-0.022,-0.098,0.000,0.000,0.266,0.193,2,2,0,2,7,255,1728,200,1221,1728
stim,1202,1202,0,85321.369,0.991,0.047,0.012,0.123,2698,0,635,3213,85,157,492,3849,42,0.000,4,1,4.684,0.039,-4.500,-0.220,-1.280,-0.176,-0.081,0.998,0.010,0.038,-0.098,0.000,0.000,0.266,0.193,2,2,0,2,7,255,1728,200,1226,1728
stim,1202,1202,0,85326.369,0.991,0.047,0.012,0.123,2695,0,632,3209,107,154,491,3833,42,0.000,4,1,0.702,0.043,-0.400,0.320,-0.480,-0.183,-0.100,1.005,-0.020,0.038,0.144,0.000,0.000,0.266,0.193,2,2,0,2,7,255,1728,200,1231,1728
stim,1202,1202,0,85331.369,0.991,0.047,0.012,0.124,2696,0,631,3209,85,159,493,3851,42,0.000,4,1,1.928,0.022,1.920,-0.100,0.140,-0.187,-0.112,0.991,-0.020,-0.010,0.144,0.000,0.000,0.266,0.193,2,2,0,2,7,255,1728,200,1236,1728
stim,1233,1233,0,85336.369,0.991,0.046,0.012,0.123,2699,0,637,3208,90,158,491,3859,42,0.000,4,1,2.605,0.069,2.220,0.080,1.360,-0.183,-0.095,0.970,-0.068,-0.010,0.128,0.000,0.000,0.266,0.193,2,2,0,2,7,255,1728,200,1241,1728
stim,1233,1233,0,85341.369,0.991,0.046,0.012,0.123,2697,0,643,3215,109,155,489,3847,42,0.000,4,1,2.003,0.070,0.400,-0.100,1.960,-0.174,-0.083,0.961,-0.068,0.016,-0.102,0.000,0.000,0.266,0.193,2,2,0,2,7,255,1728,200,1246,1728
stim,1233,1233,0,85346.369,0.991,0.046,0.012,0.123,2688,0,636,3207,103,154,493,3852,42,0.000,4,1,2.326,0.027,-1.980,-0.040,1.220,-0.166,-0.091,0.969,0.022,0.016,-0.140,0.000,0.000,0.266,0.193,2,2,0,2,7,255,1728,200,1251,1728
stim,1233,1233,0,85351.369,0.991,0.047,0.012,0.123,2707,0,637,3219,91,162,490,3854,42,0.000,4,1,2.517,0.094,-2.480,0.080,-0.420,-0.164,-0.108,0.985,0.094,0.004,-0.140,0.000,0.000,0.266,0.193,2,2,0,2,7,255,1728,200,1256,1728
stim,1233,1233,0,85356.369,0.991,0.047,0.012,0.123,2696,0,629,3209,87,151,491,3849,42,0.000,4,1,2.000,0.132,-0.940,0.140,-1.760,-0.174,-0.106,0.994,0.094,-0.092,0.028,0.000,0.000,0.266,0.193,2,2,0,2,7,255,1728,200,1261,1728
stim,1233,1233,0,85361.370,0.991,0.047,0.012,0.123,2698,0,650,3208,85,165,494,3860,42,0.000,4,1,1.748,0.095,0.700,0.260,-1.580,-0.186,-0.090,0.990,0.024,-0.092,0.092,0.000,0.000,0.266,0.193,2,2,0,2,7,255,1728,200,1266,1728
stim,1233,1233,0,85366.371,0.991,0.046,0.012,0.123,2697,0,635,3206,89,167,495,3837,42,0.000,4,1,1.151,0.093,1.140,0.140,0.080,-0.190,-0.083,0.978,-0.050,0.078,0.092,0.000,0.000,0.266,0.193,2,2,0,2,7,255,1728,200,1271,1728
stim,1233,1233,0,85371.370,0.991,0.046,0.012,0.123,2687,0,643,3209,102,169,492,3848,42,0.000,4,1,1.799,0.108,0.220,0.140,1.780,-0.184,-0.094,0.971,-0.074,0.078,-0.020,0.000,0.000,0.266,0.193,2,2,0,2,7,255,1728,200,1276,1728
stim,1233,1233,0,85376.369,0.991,0.046,0.012,0.123,2687,0,645,3208,101,155,493,3855,42,0.000,4,1,2.120,0.078,-0.940,0.020,1.900,-0.171,-0.103,0.975,-0.074,0.026,-0.064,0.000,0.000,0.266,0.193,2,2,0,2,7,255,1728,200,1281,1728
stim,1233,1233,0,85381.369,0.991,0.046,0.012,0.123,2685,0,635,3213,105,157,491,3847,42,0.000,4,1,1.449,0.090,-1.360,0.020,0.500,-0.167,-0.102,0.984,0.026,-0.086,-0.064,0.000,0.000,0.266,0.193,2,2,0,2,7,255,1728,200,1286,1728
stim,1265,1265,0,85386.369,0.991,0.046,0.012,0.123,2685,0,632,3206,99,166,493,3839,42,0.000,4,1,1.362,0.117,-0.700,0.140,-1.160,-0.170,-0.095,0.989,0.080,-0.086,0.020,0.000,0.000,0.266,0.193,2,2,0,2,7,255,1728,200,1291,1728
stim,1265,1265,0,85391.369,0.991,0.046,0.012,0.123,2697,0,645,3209,89,168,502,3861,42,0.000,4,1,1.655,0.080,0.100,0.200,-1.640,-0.181,-0.092,0.986,0.080,-0.008,0.054,0.000,0.000,0.266,0.193,2,2,0,2,7,255,1728,200,1296,1728
stim,1265,1265,0,85396.369,0.991,0.046,0.012,0.123,2681,0,629,3208,109,165,493,3847,42,0.000,4,1,0.730,0.033,0.280,0.140,-0.660,-0.187,-0.095,0.980,-0.018,0.028,0.054,0.000,0.000,0.266,0.193,2,2,0,2,7,255,1728,200,1301,1728
stim,1265,1265,0,85401.369,0.991,0.046,0.012,0.123,2696,0,632,3208,117,168,493,3849,42,0.000,4,1,0.883,0.094,-0.200,0.020,0.860,-0.187,-0.096,0.979,-0.090,0.028,0.012,0.000,0.000,0.266,0.193,2,2,0,2,7,255,1728,200,1306,1728
stim,1327,1327,0,85406.369,0.991,0.046,0.012,0.123,2695,0,631,3197,134,169,493,3853,42,0.000,4,1,1.675,0.092,-0.640,-0.160,1.540,-0.178,-0.094,0.982,-0.090,0.018,0.008,0.000,0.000,0.266,0.193,2,2,0,2,7,255,1728,200,1311,1728
stim,1327,1327,0,85411.369,0.991,0.046,0.012,0.123,2679,0,632,3208,137,160,493,3850,42,0.000,4,1,1.077,0.016,-0.640,-0.100,0.860,-0.171,-0.097,0.986,0.002,0.016,0.008,0.000,0.000,0.266,0.193,2,2,0,2,7,255,1728,200,1316,1728
stim,1327,1327,0,85416.369,0.991,0.046,0.012,0.123,2681,0,631,3204,145,168,493,3847,42,0.000,4,1,0.504,0.047,-0.260,-0.100,-0.420,-0.173,-0.100,0.986,0.040,-0.024,0.036,0.000,0.000,0.266,0.193,2,2,0,2,7,255,1728,200,1321,1728
stim,1327,1327,0,85421.369,0.991,0.046,0.012,0.123,2683,0,629,3199,142,168,493,3835,42,0.000,4,1,1.231,0.047,-0.020,-0.160,-1.220,-0.179,-0.099,0.983,0.040,-0.024,0.036,0.000,0.000,0.266,0.193,2,2,0,2,7,255,1728,200,1326,1728
stim,1327,1327,0,85426.369,0.991,0.046,0.012,0.123,2676,0,630,3222,141,160,495,3832,42,0.000,4,1,0.880,0.030,-0.140,-0.220,-0.840,-0.185,-0.093,0.981,-0.018,-0.024,0.022,0.000,0.000,0.266,0.193,2,2,0,2,7,255,1728,200,1331,1728
stim,1327,1327,0,85431.369,0.991,0.046,0.012,0.123,2672,0,637,3213,140,163,493,3843,42,0.000,4,1,0.591,0.070,-0.440,-0.340,0.200,-0.185,-0.089,0.982,-0.054,0.044,0.014,0.000,0.000,0.266,0.193,2,2,0,2,7,255,1728,200,1336,1728
stim,1327,1327,0,85436.369,0.991,0.046,0.012,0.123,2671,0,643,3213,113,157,491,3855,42,0.000,4,1,1.156,0.070,-0.620,-0.460,0.860,-0.181,-0.094,0.984,-0.054,0.044,0.014,0.000,0.000,0.266,0.193,2,2,0,2,7,255,1728,200,1341,1728
stim,1327,1327,0,85441.369,0.991,0.046,0.012,0.123,2683,0,636,3207,131,168,489,3851,42,0.000,4,1,0.905,0.035,-0.380,-0.460,0.680,-0.176,-0.099,0.985,-0.024,0.026,0.030,0.000,0.000,0.266,0.193,2,2,0,2,7,255,1728,200,1346,1728
stim,1327,1327,0,85446.369,0.991,0.046,0.012,0.123,2682,0,637,3208,139,164,493,3847,42,0.000,4,1,0.524,0.034,-0.020,-0.520,-0.060,-0.175,-0.100,0.984,0.012,-0.032,0.030,0.000,0.000,0.266,0.193,2,2,0,2,7,255,1728,200,1351,1728
stim,1327,1327,0,85451.369,0.991,0.046,0.012,0.123,2672,0,633,3205,137,169,493,3855,42,0.000,4,1,0.794,0.034,-0.020,-0.520,-0.600,-0.178,-0.096,0.982,0.012,-0.032,0.030,0.000,0.000,0.266,0.193,2,2,0,2,7,255,1728,200,1356,1728
stim,1327,1327,0,85456.369,0.991,0.046,0.012,0.123,2677,0,637,3189,141,167,495,3847,42,0.000,4,1,0.874,0.003,-0.260,-0.580,-0.600,-0.179,-0.094,0.979,-0.002,-0.002,0.008,0.000,0.000,0.266,0.193,2,2,0,2,7,255,1728,200,1361,1728
stim,1327,1327,0,85461.369,0.991,0.046,0.012,0.123,2670,0,645,3207,127,167,498,3849,42,0.000,4,1,0.832,0.018,-0.500,-0.640,-0.180,-0.180,-0.097,0.980,-0.018,-0.002,-0.002,0.000,0.000,0.266,0.193,2,2,0,2,7,255,1728,200,1366,1728
stim,1327,1327,0,85466.370,0.991,0.046,0.012,0.123,2668,0,645,3197,135,171,495,3849,42,0.000,4,1,0.862,0.031,-0.560,-0.640,0.140,-0.180,-0.099,0.984,-0.030,-0.006,-0.002,0.000,0.000,0.266,0.193,2,2,0,2,7,255,1728,200,1371,1728
stim,1327,1327,0,85471.369,0.991,0.046,0.012,0.123,2669,0,651,3212,138,165,493,3847,42,0.000,4,1,0.867,0.031,-0.440,-0.700,0.260,-0.178,-0.095,0.985,-0.030,-0.006,0.032,0.000,0.000,0.266,0.193,2,2,0,2,7,255,1728,200,1376,1728
stim,1343,1343,0,85476.369,0.991,0.046,0.012,0.123,2667,0,645,3207,118,169,493,3853,42,0.000,4,1,0.773,0.004,-0.020,-0.760,0.140,-0.174,-0.094,0.983,0.002,0.004,0.032,0.000,0.000,0.266,0.193,2,2,0,2,7,255,1728,200,1381,1728
stim,1343,1343,0,85481.369,0.991,0.046,0.013,0.123,2666,0,637,3208,109,173,501,3866,42,0.000,4,1,0.730,0.020,0.100,-0.700,-0.180,-0.175,-0.095,0.981,0.020,0.004,0.014,0.000,0.000,0.266,0.193,2,2,0,2,7,255,1728,200,1386,1728
stim,1344,1344,0,85486.369,0.991,0.046,0.013,0.123,2667,0,643,3223,107,179,495,3860,42,0.000,4,1,0.936,0.021,-0.260,-0.760,-0.480,-0.176,-0.097,0.979,0.020,-0.006,-0.004,0.000,0.000,0.266,0.193,2,2,0,2,7,255,1728,200,1391,1728
stim,1344,1344,0,85491.369,0.991,0.046,0.013,0.123,2673,0,646,3225,109,168,493,3858,42,0.000,4,1,1.051,0.006,-0.620,-0.700,-0.480,-0.178,-0.095,0.979,-0.002,-0.006,-0.026,0.000,0.000,0.266,0.193,2,2,0,2,7,255,1728,200,1396,1728
stim,1408,1408,0,85496.369,0.991,0.046,0.013,0.123,2661,0,651,3234,125,165,499,3863,42,0.000,4,1,0.952,0.003,-0.620,-0.700,-0.180,-0.178,-0.093,0.982,-0.002,0.002,-0.026,0.000,0.000,0.266,0.193,2,2,0,2,7,255,1728,200,1401,1728
stim,1408,1408,0,85501.369,0.991,0.046,0.013,0.123,2668,0,647,3222,140,168,495,3865,42,0.000,4,1,0.812,0.022,-0.320,-0.700,0.260,-0.177,-0.092,0.984,-0.002,0.022,0.010,0.000,0.000,0.266,0.193,2,2,0,2,7,255,1728,200,1406,1728
stim,1408,1408,0,85506.369,0.991,0.046,0.013,0.123,2659,0,650,3220,128,165,499,3865,42,0.000,4,1,0.728,0.025,-0.020,-0.700,0.200,-0.175,-0.094,0.981,0.012,0.022,0.010,0.000,0.000,0.266,0.193,2,2,0,2,7,255,1728,200,1411,1728
stim,1408,1408,0,85511.369,0.991,0.046,0.013,0.123,2655,0,653,3221,137,165,499,3865,42,0.000,4,1,0.695,0.022,-0.080,-0.680,-0.120,-0.173,-0.095,0.978,0.020,0.008,-0.010,0.000,0.000,0.266,0.193,2,2,0,2,7,255,1728,200,1416,1728
stim,1408,1408,0,85516.369,0.991,0.046,0.013,0.123,2654,0,653,3225,133,175,496,3869,42,0.000,4,1,0.787,0.020,-0.380,-0.620,-0.300,-0.175,-0.094,0.978,0.020,0.000,-0.040,0.000,0.000,0.266,0.193,2,2,0,2,7,255,1728,200,1421,1728
stim,1408,1408,0,85521.369,0.991,0.046,0.013,0.123,2659,0,649,3220,138,163,499,3868,42,0.000,4,1,0.877,0.022,-0.680,-0.500,-0.240,-0.175,-0.092,0.980,0.022,0.000,-0.040,0.000,0.000,0.266,0.193,2,2,0,2,7,255,1728,200,1426,1728
stim,1409,1409,0,85526.369,0.991,0.046,0.013,0.123,2659,0,649,3225,135,157,495,3863,42,0.000,4,1,0.855,0.028,-0.620,-0.560,-0.180,-0.176,-0.092,0.982,0.014,0.024,-0.016,0.000,0.000,0.266,0.193,2,2,0,2,7,255,1728,200,1431,1728
stim,1409,1409,0,85531.369,0.991,0.046,0.013,0.123,2652,0,652,3235,140,164,497,3860,42,0.000,4,1,0.812,0.028,-0.560,-0.560,-0.180,-0.178,-0.096,0.982,0.014,0.024,0.000,0.000,0.000,0.266,0.193,2,2,0,2,7,255,1728,200,1436,1728
stim,1410,1410,0,85536.369,0.991,0.046,0.013,0.123,2651,0,650,3221,126,165,499,3865,42,0.000,4,1,0.678,0.007,-0.380,-0.560,-0.040,-0.176,-0.096,0.983,0.006,-0.004,0.014,0.000,0.000,0.266,0.193,2,2,0,2,7,255,1728,200,1441,1728
stim,1410,1410,0,85541.369,0.991,0.046,0.013,0.123,2659,0,647,3226,108,165,497,3885,42,0.000,4,1,0.595,0.007,0.000,-0.560,0.200,-0.174,-0.094,0.979,0.006,-0.004,0.014,0.000,0.000,0.266,0.193,2,2,0,2,7,255,1728,200,1446,1728
stim,1423,1423,0,85546.369,0.991,0.046,0.013,0.123,2648,0,647,3219,121,159,495,3857,42,0.000,4,1,2.367,0.019,1.400,0.180,1.900,-0.167,-0.098,0.967,0.016,-0.010,-0.022,0.000,0.000,0.266,0.193,2,2,0,2,7,255,1728,200,1451,1728
stim,1423,1423,0,85551.369,0.991,0.046,0.013,0.123,2651,0,649,3221,101,159,495,3867,42,0.000,4,1,1.571,0.019,-1.420,-0.260,0.620,-0.175,-0.095,0.967,0.016,-0.010,-0.140,0.000,0.000,0.266,0.193,2,2,0,2,7,255,1728,200,1456,1728
stim,1423,1423,0,85556.369,0.991,0.046,0.013,0.123,2653,0,647,3219,109,161,499,3861,42,0.000,4,1,4.667,0.047,-4.460,-0.740,-1.160,-0.171,-0.089,0.988,0.046,-0.010,-0.140,0.000,0.000,0.266,0.193,2,2,0,2,7,255,1728,200,1461,1728
stim,1423,1423,0,85561.369,0.991,0.046,0.013,0.123,2635,0,629,3221,121,155,499,3869,42,0.000,4,1,1.470,0.029,-1.040,-0.200,-1.020,-0.177,-0.097,1.003,0.028,-0.008,0.052,0.000,0.000,0.266,0.193,2,2,0,2,7,255,1728,200,1466,1728
stim,1439,1439,0,85566.371,0.991,0.046,0.013,0.123,2638,0,628,3223,110,164,499,3874,42,0.000,4,1,1.546,0.029,1.280,-0.380,-0.780,-0.183,-0.105,0.994,0.028,-0.008,0.142,0.000,0.000,0.266,0.193,2,2,0,2,7,255,1728,200,1471,1728
stim,1439,1439,0,85571.369,0.991,0.046,0.013,0.123,2633,0,638,3210,95,153,501,3867,42,0.000,4,1,2.062,0.061,2.020,-0.260,0.320,-0.182,-0.094,0.975,-0.060,-0.008,0.142,0.000,0.000,0.266,0.193,2,2,0,2,7,255,1728,200,1476,1728
stim,1439,1439,0,85576.369,0.991,0.046,0.013,0.123,2637,0,632,3213,102,147,501,3871,42,0.000,4,1,1.767,0.063,0.860,-0.440,1.480,-0.178,-0.088,0.966,-0.060,0.020,-0.054,0.000,0.000,0.266,0.193,2,2,0,2,7,255,1728,200,1481,1728
stim,1439,1439,0,85581.369,0.991,0.046,0.013,0.123,2633,0,613,3221,111,146,501,3872,42,0.000,4,1,1.866,0.034,-1.220,-0.380,1.360,-0.168,-0.093,0.969,-0.028,0.020,-0.132,0.000,0.000,0.266,0.193,2,2,0,2,7,255,1728,200,1486,1728
stim,1511,1511,0,85586.370,0.991,0.046,0.013,0.123,2633,0,617,3219,123,141,496,3867,42,0.000,4,1,2.045,0.058,-2.020,-0.320,0.000,-0.163,-0.104,0.981,0.056,-0.014,-0.132,0.000,0.000,0.266,0.193,2,2,0,2,7,255,1728,200,1491,1728
stim,1511,1511,0,85591.370,0.991,0.046,0.013,0.123,2635,0,615,3213,141,151,493,3877,42,0.000,4,1,2.066,0.101,-1.160,-0.180,-1.700,-0.169,-0.102,0.992,0.064,-0.078,-0.014,0.000,0.000,0.266,0.193,2,2,0,2,7,255,1728,200,1496,1728
stim,1511,1511,0,85596.370,0.991,0.046,0.013,0.123,2627,0,617,3221,153,147,501,3865,42,0.000,4,1,1.952,0.101,0.180,-0.120,-1.940,-0.180,-0.093,0.991,0.064,-0.078,0.094,0.000,0.000,0.266,0.193,2,2,0,2,7,255,1728,200,1501,1728
stim,1511,1511,0,85601.370,0.991,0.046,0.013,0.124,2621,0,612,3211,142,144,498,3864,42,0.000,4,1,1.146,0.039,0.920,-0.180,-0.660,-0.188,-0.087,0.981,-0.014,0.036,0.094,0.000,0.000,0.266,0.193,2,2,0,2,7,255,1728,200,1506,1728
stim,1511,1511,0,85606.370,0.991,0.046,0.013,0.123,2617,0,616,3209,133,145,493,3867,42,0.000,4,1,1.173,0.080,0.440,-0.240,1.060,-0.183,-0.093,0.974,-0.072,0.036,0.008,0.000,0.000,0.266,0.193,2,2,0,2,7,255,1728,200,1511,1728
stim,1511,1511,0,85611.369,0.991,0.046,0.013,0.123,2615,0,616,3212,131,141,501,3877,42,0.000,4,1,1.709,0.077,-0.480,-0.360,1.600,-0.173,-0.100,0.976,-0.072,0.026,-0.056,0.000,0.000,0.266,0.193,2,2,0,2,7,255,1728,200,1516,1728
stim,1511,1511,0,85616.369,0.991,0.046,0.013,0.123,2608,0,617,3215,119,141,501,3869,42,0.000,4,1,1.209,0.056,-1.040,-0.360,0.500,-0.167,-0.101,0.983,0.002,-0.056,-0.056,0.000,0.000,0.266,0.193,2,2,0,2,7,255,1728,200,1521,1728
stim,1511,1511,0,85621.369,0.991,0.046,0.013,0.123,2617,0,613,3219,117,142,495,3871,42,0.000,4,1,1.355,0.090,-0.840,-0.300,-1.020,-0.169,-0.095,0.987,0.070,-0.056,0.006,0.000,0.000,0.266,0.193,2,2,0,2,7,255,1728,200,1526,1728
stim,1511,1511,1,85626.369,0.991,0.046,0.013,0.123,2605,0,619,3227,111,138,496,3883,42,0.000,4,1,1.660,0.072,-0.180,-0.180,-1.640,-0.177,-0.092,0.987,0.070,-0.018,0.040,0.000,0.000,0.266,0.193,2,2,1,2,7,255,1728,200,1531,1728
stim,1511,1511,1,85631.369,0.991,0.046,0.013,0.124,2600,0,636,3221,109,142,501,3882,42,0.000,4,1,1.025,0.030,0.200,-0.300,-0.960,-0.185,-0.091,0.982,0.002,0.030,0.040,0.000,0.000,0.266,0.193,2,2,1,2,7,255,1728,200,1536,1728
stim,1535,1535,1,85636.369,0.991,0.046,0.013,0.124,2619,0,639,3232,101,149,494,3880,42,0.000,4,1,0.482,0.089,0.000,-0.360,0.320,-0.185,-0.091,0.979,-0.072,0.052,0.016,0.000,0.000,0.266,0.193,2,2,1,2,7,255,1728,200,1541,1728
stim,1535,1535,1,85641.369,0.991,0.046,0.013,0.124,2601,0,652,3237,121,149,499,3885,42,0.000,4,1,1.310,0.089,-0.480,-0.480,1.120,-0.179,-0.092,0.980,-0.072,0.052,-0.008,0.000,0.000,0.266,0.193,2,2,1,2,7,255,1728,200,1546,1728
stim,1535,1535,1,85646.369,0.991,0.046,0.013,0.123,2617,0,655,3239,140,147,503,3892,42,0.000,4,1,1.408,0.041,-0.660,-0.540,1.120,-0.171,-0.092,0.983,-0.026,0.032,-0.008,0.000,0.000,0.266,0.193,2,2,1,2,7,255,1728,200,1551,1728
stim,1535,1535,1,85651.369,0.991,0.046,0.013,0.123,2590,0,649,3217,133,150,500,3869,42,0.000,4,1,0.641,0.054,-0.300,-0.420,0.380,-0.167,-0.092,0.983,0.052,0.014,-0.004,0.000,0.000,0.266,0.193,2,2,1,2,7,255,1728,200,1556,1728
stim,1535,1535,1,85656.369,0.991,0.046,0.013,0.123,2605,0,657,3235,130,155,504,3879,42,0.000,4,1,1.057,0.066,0.800,0.120,0.680,-0.165,-0.102,0.972,0.066,-0.002,-0.004,0.000,0.000,0.266,0.193,2,2,1,2,7,255,1728,200,1561,1728
stim,1535,1535,1,85661.369,0.991,0.046,0.013,0.123,2607,0,652,3215,105,153,502,3902,42,0.000,4,1,1.065,0.079,-0.900,-0.180,-0.540,-0.177,-0.099,0.970,0.066,-0.044,-0.100,0.000,0.000,0.266,0.193,2,2,1,2,7,255,1728,200,1566,1728
stim,1535,1535,1,85666.369,0.991,0.046,0.013,0.123,2586,0,661,3235,102,143,506,3883,42,0.000,4,1,3.970,0.062,-3.400,-0.660,-1.940,-0.184,-0.084,0.984,-0.044,-0.044,-0.100,0.000,0.000,0.266,0.193,2,2,1,2,7,255,1728,200,1571,1728
stim,1535,1535,1,85671.369,0.991,0.046,0.013,0.124,2577,0,652,3237,104,150,506,3885,42,0.000,4,1,1.962,0.126,-1.820,-0.420,-0.600,-0.186,-0.070,0.998,-0.044,0.118,0.028,0.000,0.000,0.266,0.193,2,2,1,2,7,255,1728,200,1576,1728
stim,1535,1535,1,85676.369,0.991,0.046,0.013,0.123,2579,0,650,3220,101,144,501,3868,42,0.000,4,1,3.474,0.118,1.240,-0.180,3.240,-0.175,-0.103,0.993,-0.002,0.118,0.116,0.000,0.000,0.266,0.193,2,2,1,2,7,255,1728,200,1581,1728
stim,1535,1535,1,85681.369,0.991,0.046,0.013,0.123,2579,0,649,3207,99,147,503,3869,42,0.000,4,1,2.991,0.078,2.220,-0.420,1.960,-0.175,-0.125,0.972,-0.002,-0.078,0.116,0.000,0.000,0.266,0.193,2,2,1,2,7,255,1728,200,1586,1728
stim,1560,1560,1,85686.369,0.991,0.046,0.013,0.123,2583,0,650,3231,95,149,503,3883,42,0.000,4,1,2.878,0.079,-1.940,-0.720,-2.000,-0.166,-0.073,0.969,0.012,-0.078,-0.062,0.000,0.000,0.266,0.193,2,2,1,2,7,255,1728,200,1591,1728
stim,1560,1560,1,85691.369,0.991,0.046,0.013,0.123,2595,0,654,3243,119,139,507,3911,42,0.000,4,1,1.717,0.132,0.620,0.440,1.540,-0.165,-0.102,0.986,0.090,-0.096,-0.062,0.000,0.000,0.266,0.193,2,2,1,2,7,255,1728,200,1596,1728
stim,1567,1567,1,85696.369,0.991,0.046,0.013,0.123,2584,0,652,3239,71,144,503,3912,42,0.000,4,1,2.144,0.191,-1.200,-1.520,-0.920,-0.188,-0.072,0.963,0.090,0.168,-0.154,0.000,0.000,0.266,0.193,2,2,1,2,7,255,1728,200,1601,1728
stim,1567,1567,1,85701.369,0.991,0.046,0.013,0.123,2585,0,661,3215,80,143,511,3913,42,0.000,4,1,2.916,0.132,-2.540,1.420,-0.180,-0.159,-0.125,0.998,0.090,-0.096,0.030,0.000,0.000,0.266,0.193,2,2,1,2,7,255,1728,200,1606,1728
stim,1616,1616,1,85706.369,0.991,0.046,0.013,0.123,2571,0,652,3227,82,145,507,3895,42,0.000,4,1,2.412,0.215,0.340,-2.380,0.200,-0.194,-0.079,0.984,-0.100,0.190,0.044,0.000,0.000,0.266,0.193,2,2,1,2,7,255,1728,200,1611,1728
stim,1616,1616,1,85711.369,0.991,0.046,0.013,0.123,2540,0,657,3211,135,149,519,3909,42,0.000,4,1,2.244,0.180,0.140,2.200,-0.420,-0.159,-0.106,0.989,0.106,-0.146,0.056,0.000,0.000,0.266,0.193,2,2,1,2,7,255,1728,200,1616,1728
stim,1617,1617,1,85716.369,0.991,0.046,0.013,0.123,2537,0,648,3209,119,145,504,3911,42,0.000,4,1,3.826,0.230,0.520,-3.280,1.900,-0.200,-0.075,0.971,-0.130,0.190,0.044,0.000,0.000,0.266,0.193,2,2,1,2,7,255,1728,200,1621,1728
stim,1617,1617,1,85721.369,0.991,0.046,0.013,0.123,2549,0,661,3222,119,147,521,3887,42,0.000,4,1,3.369,0.200,-0.520,3.320,0.240,-0.142,-0.110,0.991,0.136,-0.146,0.046,0.000,0.000,0.266,0.193,2,2,1,2,7,255,1728,200,1626,1728
stim,1618,1618,1,85726.369,0.991,0.046,0.013,0.123,2535,0,649,3231,123,143,504,3901,42,0.000,4,1,4.190,0.246,-0.640,-4.140,-0.060,-0.199,-0.083,0.952,-0.200,0.144,-0.080,0.000,0.000,0.266,0.193,2,2,1,2,7,255,1728,200,1631,1728
stim,1618,1618,1,85731.369,0.991,0.046,0.013,0.123,2539,0,647,3224,119,143,521,3917,42,0.000,4,1,3.716,0.276,-1.140,3.320,1.220,-0.159,-0.122,1.018,0.156,-0.228,0.046,0.000,0.000,0.266,0.193,2,2,1,2,7,255,1728,200,1636,1728
stim,1631,1631,1,85736.369,0.991,0.046,0.013,0.123,2527,0,653,3209,96,142,509,3912,42,0.000,4,1,3.643,0.145,-1.500,-2.680,-1.960,-0.173,-0.068,0.948,0.014,0.144,-0.256,0.000,0.000,0.266,0.193,2,2,1,2,7,255,1728,200,1641,1728
stim,1631,1631,1,85741.369,0.991,0.046,0.013,0.123,2542,0,649,3239,111,151,506,3917,42,0.000,4,1,1.092,0.079,0.760,0.260,0.740,-0.184,-0.107,1.022,0.014,-0.078,0.348,0.000,0.000,0.266,0.193,2,2,1,2,7,255,1728,200,1646,1728
stim,1631,1631,1,85746.369,0.991,0.046,0.013,0.123,2528,0,647,3224,105,141,501,3920,42,0.000,4,1,1.102,0.027,0.460,1.000,-0.060,-0.171,-0.095,0.960,-0.008,-0.026,-0.214,0.000,0.000,0.266,0.193,2,2,1,2,7,255,1728,200,1651,1728
stim,1631,1631,1,85751.369,0.991,0.046,0.013,0.123,2527,0,651,3208,119,151,519,3939,42,0.000,4,1,2.602,0.048,-0.400,-2.560,0.240,-0.187,-0.099,0.985,-0.040,-0.026,0.054,0.000,0.000,0.266,0.193,2,2,1,2,7,255,1728,200,1656,1728
stim,1631,1631,1,85756.369,0.991,0.046,0.013,0.123,2515,0,646,3219,89,142,505,3939,42,0.000,4,1,2.807,0.055,-0.940,1.900,1.840,-0.179,-0.107,0.990,-0.048,-0.026,0.054,0.000,0.000,0.266,0.193,2,2,1,2,7,255,1728,200,1661,1728
stim,1631,1631,1,85761.369,0.991,0.046,0.014,0.123,2503,0,633,3213,97,152,504,3919,42,0.000,4,1,1.388,0.049,0.220,-1.260,0.540,-0.147,-0.078,0.960,-0.048,-0.012,0.054,0.000,0.000,0.266,0.193,2,2,1,2,7,255,1728,200,1666,1728
stim,1631,1631,1,85766.371,0.991,0.046,0.014,0.123,2503,0,644,3241,105,167,519,3923,42,0.000,4,1,1.164,0.091,0.040,0.380,-1.100,-0.173,-0.080,0.985,0.050,0.076,0.020,0.000,0.000,0.266,0.193,2,2,1,2,7,255,1728,200,1671,1728
stim,1631,1631,1,85771.369,0.991,0.046,0.014,0.123,2490,0,631,3241,88,158,518,3909,42,0.000,4,1,3.839,0.091,-3.500,-1.520,-0.420,-0.194,-0.104,0.984,0.050,0.076,0.020,0.000,0.000,0.266,0.193,2,2,1,2,7,255,1728,200,1676,1728
stim,1647,1647,1,85776.369,0.991,0.046,0.013,0.123,2520,0,645,3245,101,177,521,3935,42,0.000,4,1,2.084,0.198,-1.740,0.760,0.860,-0.195,-0.115,1.004,-0.194,-0.040,0.064,0.000,0.000,0.266,0.193,2,2,1,2,7,255,1728,200,1681,1728
stim,1647,1647,1,85781.369,0.991,0.046,0.013,0.123,2501,0,645,3216,91,171,509,3937,42,0.000,4,1,1.608,0.213,-0.200,-0.220,1.580,-0.184,-0.107,0.996,-0.194,-0.088,0.162,0.000,0.000,0.266,0.193,2,2,1,2,7,255,1728,200,1686,1728
stim,1647,1647,1,85786.369,0.991,0.046,0.013,0.123,2493,0,640,3230,100,173,511,3958,42,0.000,4,1,1.835,0.118,1.260,-0.660,1.160,-0.172,-0.089,0.983,-0.078,-0.088,0.162,0.000,0.000,0.266,0.193,2,2,1,2,7,255,1728,200,1691,1728
stim,1647,1647,1,85791.369,0.991,0.046,0.013,0.123,2487,0,639,3232,116,172,523,3958,42,0.000,4,1,1.544,0.064,1.260,-0.600,0.660,-0.169,-0.082,0.976,0.044,0.046,0.004,0.000,0.000,0.266,0.193,2,2,1,2,7,255,1728,200,1696,1728
stim,1712,1712,1,85796.369,0.991,0.046,0.014,0.123,2491,0,633,3217,101,168,507,3915,42,0.000,4,1,1.054,0.064,0.100,-0.900,0.540,-0.172,-0.088,0.975,0.044,0.046,-0.076,0.000,0.000,0.266,0.193,2,2,1,2,7,255,1728,200,1701,1728
stim,1712,1712,1,85801.370,0.991,0.046,0.014,0.123,2461,0,630,3214,103,168,522,3914,42,0.000,4,1,1.281,0.054,-0.880,-0.900,0.240,-0.172,-0.098,0.980,0.028,0.046,-0.076,0.000,0.000,0.266,0.193,2,2,1,2,7,255,1728,200,1706,1728
stim,1712,1712,1,85806.369,0.991,0.046,0.014,0.123,2461,0,633,3231,102,159,518,3947,42,0.000,4,1,1.217,0.044,-0.940,-0.760,-0.140,-0.173,-0.098,0.986,0.012,-0.042,-0.014,0.000,0.000,0.266,0.193,2,2,1,2,7,255,1728,200,1711,1728
stim,1712,1712,1,85811.369,0.991,0.046,0.014,0.123,2456,0,638,3213,132,173,520,3901,42,0.000,4,1,1.028,0.044,-0.260,-0.960,-0.260,-0.174,-0.094,0.988,0.012,-0.042,0.038,0.000,0.000,0.266,0.193,2,2,1,2,7,255,1728,200,1716,1728
stim,1712,1712,1,85816.369,0.991,0.046,0.014,0.123,2475,0,645,3245,103,138,519,3945,42,0.000,4,1,0.890,0.012,0.340,-0.820,-0.060,-0.179,-0.089,0.985,0.012,0.002,0.038,0.000,0.000,0.266,0.193,2,2,1,2,7,255,1728,200,1721,1728
stim,1712,1712,1,85821.369,0.991,0.046,0.014,0.123,2443,0,638,3240,120,139,519,3924,42,0.000,4,1,1.190,0.037,0.780,-0.760,0.480,-0.179,-0.091,0.983,-0.018,0.032,0.034,0.000,0.000,0.266,0.193,2,2,1,2,7,255,1728,200,1726,1728
stim,1712,1712,0,85826.369,0.991,0.046,0.014,0.123,2467,0,637,3221,103,219,517,3963,42,0.000,4,1,1.487,0.041,0.520,-0.880,1.080,-0.177,-0.092,0.979,-0.026,0.032,0.012,0.000,0.000,0.266,0.193,2,2,0,2,7,255,1728,200,3,1728
stim,1712,1712,0,85831.369,0.991,0.046,0.014,0.123,2461,0,627,3256,119,235,517,3949,42,0.000,4,1,1.437,0.032,0.220,-0.760,1.200,-0.175,-0.095,0.978,-0.026,0.018,-0.026,0.000,0.000,0.266,0.193,2,2,0,2,7,255,1728,200,8,1728
stim,1713,1713,0,85836.369,0.991,0.045,0.014,0.123,2421,0,619,3219,133,236,519,3945,42,0.000,4,1,1.265,0.017,-0.080,-0.820,0.960,-0.172,-0.095,0.980,-0.012,-0.012,-0.026,0.000,0.000,0.266,0.193,2,2,0,2,7,255,1728,200,13,1728
stim,1713,1713,0,85841.369,0.991,0.045,0.014,0.123,2420,0,621,3212,152,248,527,3943,42,0.000,4,1,0.995,0.026,-0.200,-0.880,0.420,-0.171,-0.096,0.982,0.014,-0.022,-0.018,0.000,0.000,0.266,0.193,2,2,0,2,7,255,1728,200,18,1728
stim,1713,1713,0,85846.369,0.991,0.045,0.014,0.123,2415,0,623,3221,151,251,517,3958,42,0.000,4,1,1.029,0.040,-0.200,-1.000,-0.140,-0.170,-0.096,0.982,0.026,-0.030,-0.004,0.000,0.000,0.266,0.193,2,2,0,2,7,255,1728,200,23,1728
stim,1713,1713,0,85851.369,0.991,0.045,0.014,0.123,2407,0,624,3211,144,263,521,3956,42,0.000,4,1,1.052,0.040,-0.140,-0.880,-0.560,-0.172,-0.095,0.981,0.026,-0.030,-0.004,0.000,0.000,0.266,0.193,2,2,0,2,7,255,1728,200,28,1728
stim,1714,1714,0,85856.369,0.991,0.045,0.014,0.123,2405,0,619,3219,136,262,522,3951,42,0.000,4,1,0.907,0.023,-0.080,-0.820,-0.380,-0.178,-0.095,0.981,0.012,-0.020,-0.004,0.000,0.000,0.266,0.193,2,2,0,2,7,255,1728,200,33,1728
stim,1714,1714,0,85861.369,0.991,0.045,0.014,0.123,2396,0,635,3219,149,249,535,3951,42,0.000,4,1,0.655,0.038,-0.140,-0.620,0.160,-0.178,-0.094,0.979,-0.038,-0.002,-0.008,0.000,0.000,0.266,0.193,2,2,0,2,7,255,1728,200,38,1728
stim,1744,1744,0,85866.369,0.991,0.045,0.014,0.123,2398,0,651,3223,160,267,519,3965,42,0.000,4,1,1.094,0.038,-0.200,-0.740,0.780,-0.171,-0.092,0.980,-0.038,0.004,-0.018,0.000,0.000,0.266,0.193,2,2,0,2,7,255,1728,200,43,1728
stim,1744,1744,0,85871.369,0.991,0.045,0.014,0.123,2392,0,647,3229,179,269,523,3945,42,0.000,4,1,0.812,0.025,-0.260,-0.680,0.360,-0.162,-0.088,0.979,0.024,0.006,-0.026,0.000,0.000,0.266,0.193,2,2,0,2,7,255,1728,200,48,1728
stim,1744,1744,0,85876.369,0.991,0.045,0.014,0.123,2387,0,648,3215,167,276,519,3956,42,0.000,4,1,1.190,0.097,-0.320,-1.000,-0.560,-0.164,-0.087,0.979,0.096,0.016,-0.046,0.000,0.000,0.266,0.193,2,2,0,2,7,255,1728,200,53,1728
stim,1744,1744,0,85881.369,0.991,0.045,0.014,0.123,2381,0,651,3222,175,276,519,3953,42,0.000,4,1,1.015,0.097,-0.200,-0.860,-0.500,-0.183,-0.099,0.983,0.096,0.016,-0.046,0.000,0.000,0.266,0.193,2,2,0,2,7,255,1728,200,58,1728
stim,1809,1809,0,85886.369,0.991,0.045,0.014,0.123,2377,0,647,3230,192,269,520,3944,42,0.000,4,1,1.212,0.104,-0.260,-0.320,1.140,-0.190,-0.111,0.985,-0.100,-0.028,0.034,0.000,0.000,0.266,0.193,2,2,0,2,7,255,1728,200,63,1728
stim,1809,1809,0,85891.369,0.991,0.045,0.014,0.123,2382,0,645,3229,200,272,509,3947,42,0.000,4,1,1.485,0.104,-0.760,-0.200,1.260,-0.163,-0.092,0.978,-0.100,-0.028,0.034,0.000,0.000,0.266,0.193,2,2,0,2,7,255,1728,200,68,1728
stim,1809,1809,0,85896.369,0.991,0.045,0.015,0.123,2373,0,643,3215,203,267,521,3889,42,0.000,4,1,1.802,0.095,-0.140,-1.240,-1.300,-0.149,-0.063,0.975,0.094,-0.014,-0.064,0.000,0.000,0.266,0.193,2,2,0,2,7,255,1728,200,73,1728
stim,1809,1809,0,85901.369,0.991,0.045,0.015,0.123,2355,0,647,3227,189,269,520,3960,42,0.000,4,1,2.184,0.099,1.440,-0.920,-1.360,-0.183,-0.092,0.987,0.094,0.030,-0.064,0.000,0.000,0.266,0.193,2,2,0,2,7,255,1728,200,78,1728
stim,1809,1809,0,85906.369,0.991,0.045,0.014,0.123,2347,0,640,3219,203,275,522,3967,42,0.000,4,1,2.378,0.089,-0.820,0.480,2.180,-0.197,-0.131,0.985,-0.084,0.030,0.062,0.000,0.000,0.266,0.193,2,2,0,2,7,255,1728,200,83,1728
stim,1809,1809,0,85911.369,0.991,0.045,0.014,0.123,2336,0,649,3225,196,269,518,3943,42,0.000,4,1,3.351,0.089,-2.520,-0.620,2.120,-0.158,-0.079,0.969,-0.084,0.030,0.062,0.000,0.000,0.266,0.193,2,2,0,2,7,255,1728,200,88,1728
stim,1809,1809,0,85916.369,0.991,0.045,0.015,0.123,2343,0,651,3219,183,273,521,3955,42,0.000,4,1,5.024,0.182,4.380,-1.540,-1.920,-0.148,-0.053,0.972,0.156,0.094,-0.164,0.000,0.000,0.266,0.193,2,2,0,2,7,255,1728,200,93,1728
stim,1809,1809,0,85921.369,0.991,0.045,0.015,0.123,2323,0,624,3221,175,266,520,3955,42,0.000,4,1,0.923,0.182,0.640,0.240,-0.620,-0.198,-0.129,0.970,0.156,0.094,-0.164,0.000,0.000,0.266,0.193,2,2,0,2,7,255,1728,200,98,1728
stim,1809,1809,0,85926.369,0.991,0.045,0.014,0.123,2324,0,637,3224,156,249,519,3981,42,0.000,4,1,4.943,0.238,-3.200,0.240,3.760,-0.186,-0.104,0.937,-0.220,-0.092,-0.172,0.000,0.000,0.266,0.193,2,2,0,2,7,255,1728,200,103,1728
stim,1809,1809,0,85931.369,0.991,0.045,0.014,0.123,2298,0,627,3235,175,228,517,3912,42,0.000,4,1,3.189,0.238,0.960,-2.140,-2.160,-0.181,-0.073,0.955,-0.220,-0.092,-0.256,0.000,0.000,0.266,0.193,2,2,0,2,7,255,1728,200,108,1728
stim,1824,1824,0,85936.369,0.991,0.046,0.014,0.123,2311,0,626,3221,173,191,519,3934,42,0.000,4,1,12.142,0.238,-11.920,-1.520,1.740,-0.235,-0.144,1.002,-0.220,-0.092,-0.256,0.000,0.000,0.266,0.193,2,2,0,2,7,255,1728,200,113,1728
stim,1824,1824,0,85941.369,0.991,0.046,0.014,0.122,2288,0,622,3216,159,180,523,3943,42,0.000,4,1,7.136,0.176,-4.020,-2.740,5.220,-0.193,-0.086,1.001,-0.114,0.134,0.212,0.000,0.000,0.266,0.193,2,2,0,2,7,255,1728,200,118,1728
stim,1825,1825,0,85946.369,0.991,0.046,0.014,0.122,2283,0,631,3223,153,184,527,3943,42,0.000,4,1,6.700,0.182,-0.360,-3.780,5.520,-0.199,-0.111,1.033,-0.168,-0.070,0.354,0.000,0.000,0.266,0.193,2,2,0,2,7,255,1728,200,123,1728
stim,1825,1825,0,85951.369,0.991,0.046,0.014,0.122,2270,0,639,3224,171,221,525,3880,42,0.000,4,1,9.701,0.134,2.020,-1.140,9.420,-0.167,-0.121,0.987,-0.114,-0.070,0.212,0.000,0.000,0.266,0.193,2,2,0,2,7,255,1728,200,128,1728
stim,1828,1828,0,85956.369,0.991,0.046,0.015,0.121,2268,0,630,3220,203,212,526,3817,42,0.000,4,1,9.539,0.073,4.900,-4.000,7.140,-0.140,-0.074,0.957,0.022,-0.070,0.062,0.000,0.000,0.266,0.193,2,2,0,2,7,255,1728,200,133,1728
stim,1828,1828,0,85961.371,0.991,0.046,0.015,0.121,2240,0,637,3226,171,188,523,3911,42,0.000,4,1,4.588,0.332,-1.640,-0.460,4.260,-0.135,-0.099,0.954,0.294,-0.154,-0.320,0.000,0.000,0.266,0.193,2,2,0,2,7,255,1728,200,138,1728
stim,1828,1828,0,85966.370,0.991,0.046,0.015,0.121,2223,0,665,3224,163,192,512,3880,42,0.000,4,1,5.187,0.330,-4.340,-2.840,-0.080,-0.129,-0.047,0.960,0.316,0.096,-0.322,0.000,0.000,0.266,0.193,2,2,0,2,7,255,1728,200,143,1728
stim,1828,1828,0,85971.369,0.991,0.046,0.015,0.121,2211,0,663,3227,154,175,523,3881,42,0.000,4,1,4.015,0.294,-3.520,-0.520,-1.860,-0.149,-0.087,0.987,0.294,0.010,-0.322,0.000,0.000,0.266,0.193,2,2,0,2,7,255,1728,200,148,1728
stim,1829,1829,0,85976.370,0.991,0.045,0.015,0.121,2197,0,653,3237,183,212,522,3821,42,0.000,4,1,4.230,0.396,-3.160,-1.560,-2.340,-0.165,-0.055,0.986,0.234,0.320,-0.006,0.000,0.000,0.266,0.193,2,2,0,2,7,255,1728,200,153,1728
stim,1829,1829,0,85981.369,0.991,0.045,0.015,0.121,2189,0,672,3219,112,185,511,3771,42,0.000,4,1,0.279,0.309,-0.100,-0.260,-0.020,-0.177,-0.065,0.979,0.158,0.266,-0.006,0.000,0.000,0.266,0.193,2,2,0,2,7,255,1728,200,158,1728
stim,1859,1859,0,85986.369,0.991,0.045,0.016,0.121,2155,0,781,3235,201,197,507,3755,42,0.000,4,1,2.214,0.266,-0.220,-0.320,2.180,-0.173,-0.074,0.972,0.004,0.266,-0.046,0.000,0.000,0.266,0.193,2,2,0,2,7,255,1728,200,163,1728
stim,1859,1859,0,85991.369,0.991,0.045,0.016,0.121,2138,0,779,3234,218,280,527,3686,42,0.000,4,1,5.430,0.252,-1.260,-0.140,5.280,-0.161,-0.060,0.953,0.004,0.252,-0.104,0.000,0.000,0.266,0.193,2,2,0,2,7,255,1728,200,168,1728
stim,1860,1860,0,85996.369,0.992,0.045,0.016,0.121,2109,0,810,3225,213,328,505,3629,42,0.000,4,1,5.051,0.203,-0.880,1.740,4.660,-0.146,-0.121,0.960,0.116,0.166,-0.218,0.000,0.000,0.266,0.193,2,2,0,2,7,255,1728,200,173,1728
stim,1860,1860,0,86001.369,0.992,0.045,0.016,0.121,2085,0,805,3219,205,342,503,3547,42,0.000,4,1,5.325,0.192,-5.160,0.580,1.180,-0.148,-0.069,0.968,0.118,0.152,-0.218,0.000,0.000,0.266,0.193,2,2,0,2,7,255,1728,200,178,1728
stim,1919,1919,0,86006.369,0.992,0.045,0.016,0.121,2269,0,871,3225,234,383,560,4095,42,0.000,4,1,4.001,0.226,-3.260,1.680,1.600,-0.148,-0.079,0.976,0.218,0.060,-0.186,0.000,0.000,0.266,0.193,2,2,0,2,7,255,1728,200,183,1728
stim,1919,1919,0,86011.369,0.992,0.045,0.016,0.121,2247,0,883,3222,251,364,563,4095,42,0.000,4,1,2.895,0.226,-1.600,2.360,0.500,-0.168,-0.117,0.987,0.218,0.060,-0.100,0.000,0.000,0.266,0.193,2,2,0,2,7,255,1728,200,188,1728
stim,1919,1919,0,86016.369,0.992,0.045,0.016,0.121,2235,0,888,3235,221,353,561,4095,42,0.000,4,1,3.756,0.061,-3.620,1.000,0.020,-0.174,-0.069,0.977,0.012,0.060,-0.052,0.000,0.000,0.266,0.193,2,2,0,2,7,255,1728,200,193,1728
stim,1919,1919,0,86021.370,0.992,0.045,0.016,0.121,2227,0,881,3225,217,359,576,4095,42,0.000,4,1,6.368,0.051,0.240,3.200,5.500,-0.163,-0.095,0.977,0.012,-0.050,-0.046,0.000,0.000,0.266,0.193,2,2,0,2,7,255,1728,200,198,1728
stim,1919,1919,0,86026.369,0.992,0.045,0.015,0.120,2211,0,907,3224,235,405,580,4095,42,0.000,4,1,5.665,0.051,0.660,3.000,4.760,-0.166,-0.133,0.969,0.012,-0.050,-0.052,0.000,0.000,0.266,0.193,2,2,0,2,7,255,1728,200,203,1728
stim,1919,1919,0,86031.369,0.992,0.045,0.015,0.120,2202,0,901,3229,219,408,584,4095,42,0.000,4,1,4.806,0.072,-3.800,2.520,1.520,-0.155,-0.083,0.967,0.052,-0.050,-0.086,0.000,0.000,0.266,0.193,2,2,0,2,7,255,1728,200,208,1728
stim,1919,1919,0,86036.369,0.992,0.045,0.015,0.120,2190,0,936,3225,205,437,589,4095,42,0.000,4,1,6.275,0.141,-1.280,3.980,4.680,-0.148,-0.089,0.976,0.138,-0.028,-0.088,0.000,0.000,0.266,0.193,2,2,0,2,7,255,1728,200,213,1728
stim,1919,1919,0,86041.369,0.992,0.046,0.015,0.120,2175,0,939,3227,213,433,593,4095,42,0.000,4,1,5.224,0.141,0.000,4.160,3.160,-0.157,-0.130,0.972,0.138,-0.028,-0.088,0.000,0.000,0.266,0.193,2,2,0,2,7,255,1728,200,218,1728
stim,1919,1919,0,86046.369,0.992,0.046,0.015,0.120,2165,0,953,3229,183,475,589,4095,42,0.000,4,1,5.221,0.124,-3.420,3.220,-2.280,-0.168,-0.106,0.976,0.020,-0.122,-0.072,0.000,0.000,0.266,0.193,2,2,0,2,7,255,1728,200,223,1728
stim,1919,1919,0,86051.369,0.992,0.046,0.015,0.120,2157,0,979,3221,168,471,590,4095,42,0.000,4,1,4.498,0.124,-2.860,3.400,-0.700,-0.174,-0.065,0.987,0.020,-0.122,-0.034,0.000,0.000,0.266,0.193,2,2,0,2,7,255,1728,200,228,1728
stim,1919,1919,0,86056.369,0.992,0.046,0.015,0.120,2149,0,979,3229,183,495,599,4095,42,0.000,4,1,6.055,0.040,1.000,4.060,4.380,-0.174,-0.090,0.981,-0.012,0.038,0.012,0.000,0.000,0.266,0.193,2,2,0,2,7,255,1728,200,233,1728
stim,1919,1919,0,86061.369,0.992,0.046,0.015,0.120,2132,0,981,3223,203,535,600,4095,42,0.000,4,1,5.208,0.040,-0.100,4.060,3.260,-0.170,-0.126,0.973,-0.014,0.038,0.012,0.000,0.000,0.266,0.193,2,2,0,2,7,255,1728,200,238,1728
stim,1951,1951,0,86066.369,0.992,0.046,0.014,0.120,2118,0,985,3226,184,547,599,4095,42,0.000,4,1,5.041,0.206,-3.460,3.620,-0.580,-0.171,-0.116,0.988,-0.026,-0.204,0.012,0.000,0.000,0.266,0.193,2,2,0,2,7,255,1728,200,243,1728
stim,1951,1951,0,86071.371,0.992,0.046,0.014,0.120,2107,0,983,3229,207,535,600,4095,42,0.000,4,1,4.063,0.206,-1.260,3.860,0.140,-0.175,-0.088,1.000,-0.026,-0.204,0.094,0.000,0.000,0.266,0.193,2,2,0,2,7,255,1728,200,248,1728
stim,1951,1951,0,86076.369,0.992,0.046,0.014,0.120,2098,0,985,3225,205,535,597,4095,42,0.000,4,1,5.472,0.020,2.100,4.220,2.780,-0.178,-0.097,0.998,-0.020,-0.002,0.176,0.000,0.000,0.266,0.193,2,2,0,2,7,255,1728,200,253,1728
stim,1951,1951,0,86081.369,0.992,0.046,0.014,0.120,2093,0,1013,3227,211,555,606,4095,42,0.000,4,1,5.036,0.020,2.400,4.080,1.720,-0.174,-0.113,0.987,-0.020,-0.002,0.176,0.000,0.000,0.266,0.193,2,2,0,2,7,255,1728,200,258,1728
stim,1951,1951,0,86086.369,0.992,0.046,0.014,0.120,2078,0,1047,3231,222,551,599,4095,42,0.000,4,1,4.064,0.108,1.300,3.840,-0.280,-0.177,-0.106,0.979,-0.042,-0.100,0.082,0.000,0.000,0.266,0.193,2,2,0,2,7,255,1728,200,263,1728
stim,1951,1951,0,86091.369,0.992,0.046,0.013,0.120,2083,0,1057,3229,219,523,599,4095,42,0.000,4,1,3.792,0.119,0.440,3.760,-0.220,-0.183,-0.096,0.983,-0.064,-0.100,0.042,0.000,0.000,0.266,0.193,2,2,0,2,7,255,1728,200,268,1728
stim,2016,2016,0,86096.369,0.992,0.046,0.013,0.120,2073,0,1043,3227,217,530,604,4095,42,0.000,4,1,3.693,0.080,0.080,3.640,0.620,-0.185,-0.098,0.991,-0.080,0.002,0.042,0.000,0.000,0.266,0.193,2,2,0,2,7,255,1728,200,273,1728
stim,2016,2016,0,86101.369,0.992,0.046,0.013,0.120,2059,0,1021,3229,205,511,599,4095,42,0.000,4,1,3.418,0.082,0.260,3.380,0.440,-0.186,-0.099,0.997,-0.082,0.002,0.122,0.000,0.000,0.266,0.193,2,2,0,2,7,255,1728,200,278,1728
stim,2016,2016,0,86106.369,0.992,0.046,0.013,0.120,2044,0,1018,3227,205,501,601,4095,42,0.000,4,1,3.109,0.086,0.740,3.020,0.020,-0.189,-0.096,0.998,-0.086,0.002,0.184,0.000,0.000,0.266,0.193,2,2,0,2,7,255,1728,200,283,1728
stim,2016,2016,0,86111.369,0.992,0.045,0.013,0.120,2041,0,1035,3243,201,500,605,4095,42,0.000,4,1,3.260,0.104,1.480,2.880,0.380,-0.191,-0.090,0.995,-0.100,0.030,0.184,0.000,0.000,0.266,0.193,2,2,0,2,7,255,1728,200,288,1728
stim,2016,2016,0,86116.369,0.992,0.045,0.013,0.120,2023,0,1048,3236,215,507,607,4095,42,0.000,4,1,3.196,0.118,1.600,2.580,1.000,-0.191,-0.092,0.990,-0.104,0.056,0.158,0.000,0.000,0.266,0.193,2,2,0,2,7,255,1728,200,293,1728
stim,2016,2016,0,86121.369,0.992,0.045,0.012,0.120,2017,0,1031,3239,206,543,603,4095,42,0.000,4,1,2.827,0.122,1.160,2.260,1.240,-0.190,-0.096,0.990,-0.108,0.056,0.116,0.000,0.000,0.266,0.193,2,2,0,2,7,255,1728,200,298,1728
stim,2016,2016,0,86126.370,0.992,0.045,0.012,0.120,2008,0,1022,3236,220,555,605,4095,42,0.000,4,1,2.305,0.109,0.620,2.020,0.920,-0.188,-0.097,0.991,-0.108,0.018,0.116,0.000,0.000,0.266,0.193,2,2,0,2,7,255,1728,200,303,1728
stim,2016,2016,0,86131.369,0.992,0.045,0.012,0.120,2009,0,1046,3236,223,565,605,4095,42,0.000,4,1,1.797,0.088,0.300,1.700,0.500,-0.188,-0.100,0.993,-0.088,-0.002,0.122,0.000,0.000,0.266,0.193,2,2,0,2,7,255,1728,200,308,1728
stim,2016,2016,0,86136.370,0.992,0.045,0.012,0.120,1996,0,1031,3247,213,555,608,4095,42,0.000,4,1,1.363,0.091,0.240,1.340,0.060,-0.190,-0.100,0.996,-0.088,-0.022,0.138,0.000,0.000,0.266,0.193,2,2,0,2,7,255,1728,200,313,1728
stim,2016,2016,0,86141.370,0.992,0.045,0.012,0.120,1994,0,1023,3245,212,545,607,4095,42,0.000,4,1,1.022,0.104,0.300,0.960,-0.180,-0.194,-0.098,0.999,-0.102,-0.022,0.168,0.000,0.000,0.266,0.193,2,2,0,2,7,255,1728,200,318,1728
stim,2016,2016,0,86146.369,0.992,0.045,0.012,0.120,1977,0,1034,3237,212,543,609,4095,42,0.000,4,1,0.747,0.118,0.300,0.660,-0.180,-0.195,-0.094,0.998,-0.118,0.010,0.186,0.000,0.000,0.266,0.193,2,2,0,2,7,255,1728,200,323,1728
stim,2016,2016,0,86151.369,0.992,0.045,0.012,0.120,1977,0,1043,3243,211,548,611,4095,42,0.000,4,1,0.588,0.127,0.420,0.360,0.200,-0.194,-0.093,0.998,-0.118,0.048,0.186,0.000,0.000,0.266,0.193,2,2,0,2,7,255,1728,200,328,1728
stim,2016,2016,0,86156.369,0.992,0.045,0.012,0.120,1962,0,1052,3229,213,555,607,4095,42,0.000,4,1,0.697,0.118,0.540,-0.020,0.440,-0.190,-0.098,0.995,-0.108,0.048,0.182,0.000,0.000,0.266,0.193,2,2,0,2,7,255,1728,200,333,1728
stim,2016,2016,0,86161.369,0.992,0.045,0.012,0.120,1955,0,1017,3232,209,553,606,4095,42,0.000,4,1,0.527,0.086,0.360,-0.380,0.060,-0.187,-0.106,0.994,-0.086,-0.004,0.154,0.000,0.000,0.266,0.193,2,2,0,2,7,255,1728,200,338,1728
stim,2049,2049,0,86166.370,0.992,0.045,0.012,0.120,1949,0,1031,3229,215,571,607,4095,42,0.000,4,1,0.965,0.091,0.180,-0.680,-0.660,-0.185,-0.102,0.995,-0.072,-0.056,0.146,0.000,0.000,0.266,0.193,2,2,0,2,7,255,1728,200,343,1728
stim,2049,2049,0,86171.369,0.992,0.045,0.012,0.120,1916,0,1032,3231,223,580,611,4095,42,0.000,4,1,1.702,0.078,0.300,-0.920,-1.400,-0.187,-0.099,0.996,-0.054,-0.056,0.146,0.000,0.000,0.266,0.193,2,2,0,2,7,255,1728,200,348,1728
stim,2049,2049,0,86176.369,0.992,0.045,0.012,0.120,1928,0,1036,3247,187,589,608,4095,42,0.000,4,1,2.391,0.058,0.360,-1.160,-2.060,-0.189,-0.098,0.994,-0.054,-0.022,0.146,0.000,0.000,0.266,0.193,2,2,0,2,7,255,1728,200,353,1728
stim,2049,2049,0,86181.369,0.992,0.045,0.012,0.120,1904,0,1020,3228,171,583,609,4095,42,0.000,4,1,2.691,0.075,0.180,-1.480,-2.240,-0.193,-0.100,0.994,-0.074,-0.012,0.138,0.000,0.000,0.266,0.193,2,2,0,2,7,255,1728,200,358,1728
stim,2096,2096,0,86186.369,0.992,0.045,0.012,0.120,1911,0,1019,3228,199,599,612,4095,42,0.000,4,1,2.594,0.108,0.180,-1.840,-1.820,-0.193,-0.098,0.993,-0.108,-0.008,0.132,0.000,0.000,0.266,0.193,2,2,0,2,7,255,1728,200,363,1728
stim,2096,2096,0,86191.369,0.992,0.045,0.012,0.120,1897,0,1033,3241,163,585,611,4095,42,0.000,4,1,2.490,0.108,0.180,-2.140,-1.260,-0.190,-0.094,0.992,-0.108,0.002,0.132,0.000,0.000,0.266,0.193,2,2,0,2,7,255,1728,200,368,1728
stim,2096,2096,0,86196.369,0.992,0.045,0.012,0.120,1881,0,1031,3235,174,570,609,4095,42,0.000,4,1,2.623,0.075,0.180,-2.260,-1.320,-0.184,-0.094,0.991,-0.074,0.014,0.108,0.000,0.000,0.266,0.193,2,2,0,2,7,255,1728,200,373,1728
stim,2096,2096,0,86201.369,0.992,0.045,0.012,0.120,1875,0,1003,3237,186,572,613,4095,42,0.000,4,1,3.190,0.023,-0.060,-2.500,-1.980,-0.181,-0.096,0.988,-0.018,0.014,0.090,0.000,0.000,0.266,0.193,2,2,0,2,7,255,1728,200,378,1728
stim,2111,2111,0,86206.369,0.992,0.045,0.012,0.120,1848,0,1019,3237,183,535,613,4095,42,0.000,4,1,3.658,0.014,-0.260,-2.620,-2.540,-0.178,-0.093,0.987,-0.008,0.012,0.054,0.000,0.000,0.266,0.193,2,2,0,2,7,255,1728,200,383,1728
stim,2111,2111,0,86211.369,0.992,0.045,0.012,0.120,1832,0,1004,3228,174,530,611,4095,42,0.000,4,1,3.641,0.014,-0.380,-2.600,-2.520,-0.184,-0.093,0.984,-0.008,0.012,0.036,0.000,0.000,0.266,0.193,2,2,0,2,7,255,1728,200,388,1728
stim,2111,2111,0,86216.369,0.992,0.045,0.012,0.120,1821,0,1011,3231,171,557,614,4095,42,0.000,4,1,4.831,0.035,-1.900,-3.080,-3.200,-0.184,-0.093,0.991,-0.024,0.026,0.036,0.000,0.000,0.266,0.193,2,2,0,2,7,255,1728,200,393,1728
stim,2111,2111,0,86221.369,0.992,0.045,0.012,0.121,1805,0,1012,3237,176,542,612,4095,42,0.000,4,1,4.466,0.035,-1.460,-3.140,-2.820,-0.182,-0.095,0.999,-0.024,0.026,0.088,0.000,0.000,0.266,0.193,2,2,0,2,7,255,1728,200,398,1728
stim,2111,2111,0,86226.369,0.992,0.045,0.013,0.121,1791,0,965,3238,212,552,611,4095,42,0.000,4,1,4.061,0.029,-0.060,-3.200,-2.500,-0.183,-0.104,0.999,-0.024,0.016,0.156,0.000,0.000,0.266,0.193,2,2,0,2,7,255,1728,200,403,1728
stim,2111,2111,0,86231.369,0.992,0.046,0.013,0.121,1785,0,957,3246,216,551,611,4095,42,0.000,4,1,4.655,0.072,0.360,-3.380,-3.180,-0.186,-0.106,0.997,-0.034,-0.064,0.156,0.000,0.000,0.266,0.193,2,2,0,2,7,255,1728,200,408,1728
stim,2127,2127,0,86236.369,0.992,0.046,0.013,0.121,1767,0,937,3235,188,487,607,4095,42,0.000,4,1,5.443,0.098,0.600,-3.620,-4.020,-0.191,-0.099,0.996,-0.074,-0.064,0.156,0.000,0.000,0.266,0.193,2,2,0,2,7,255,1728,200,413,1728
stim,2127,2127,0,86241.369,0.992,0.045,0.013,0.121,1754,0,917,3239,203,445,609,4095,42,0.000,4,1,4.917,0.088,1.580,-3.720,-2.800,-0.192,-0.082,0.990,-0.088,0.000,0.142,0.000,0.000,0.266,0.193,2,2,0,2,7,255,1728,200,418,1728
stim,2127,2127,0,86246.369,0.992,0.045,0.013,0.121,1747,0,943,3229,172,459,602,4095,42,0.000,4,1,4.332,0.174,1.820,-3.840,-0.840,-0.187,-0.081,0.981,-0.088,0.150,0.070,0.000,0.000,0.266,0.193,2,2,0,2,7,255,1728,200,423,1728
stim,2127,2127,0,86251.369,0.992,0.045,0.013,0.121,1745,0,839,3237,170,456,601,4095,42,0.000,4,1,4.056,0.160,0.780,-3.960,-0.400,-0.175,-0.092,0.977,-0.056,0.150,-0.018,0.000,0.000,0.266,0.193,2,2,0,2,7,255,1728,200,428,1728
stim,2127,2127,0,86256.369,0.992,0.045,0.013,0.121,1719,0,757,3232,179,439,600,4095,42,0.000,4,1,4.268,0.018,-0.380,-4.000,-1.440,-0.168,-0.099,0.980,0.014,0.012,-0.048,0.000,0.000,0.266,0.193,2,2,0,2,7,255,1728,200,433,1728
stim,2127,2127,0,86261.369,0.991,0.045,0.014,0.121,1704,0,749,3226,147,420,589,4095,42,0.000,4,1,4.972,0.077,-0.560,-4.000,-2.900,-0.168,-0.096,0.986,0.066,-0.040,-0.048,0.000,0.000,0.266,0.193,2,2,0,2,7,255,1728,200,438,1728
stim,2127,2127,0,86266.370,0.991,0.045,0.014,0.121,1683,0,745,3227,155,433,591,4095,42,0.000,4,1,5.535,0.077,-0.140,-4.060,-3.760,-0.175,-0.089,0.989,0.066,-0.040,0.008,0.000,0.000,0.266,0.193,2,2,0,2,7,255,1728,200,443,1728
stim,2127,2127,0,86271.369,0.991,0.045,0.014,0.122,1672,0,743,3240,160,400,588,4095,42,0.000,4,1,5.433,0.053,0.300,-4.040,-3.620,-0.183,-0.084,0.987,0.032,0.042,0.034,0.000,0.000,0.266,0.193,2,2,0,2,7,255,1728,200,448,1728
stim,2127,2127,0,86276.369,0.991,0.045,0.014,0.122,1657,0,736,3249,137,391,568,4095,42,0.000,4,1,4.995,0.109,0.420,-4.220,-2.640,-0.189,-0.086,0.984,-0.034,0.104,0.034,0.000,0.000,0.266,0.193,2,2,0,2,7,255,1728,200,453,1728
stim,2127,2127,0,86281.369,0.991,0.045,0.014,0.122,1656,0,752,3245,173,383,565,4095,42,0.000,4,1,4.997,0.142,-0.680,-4.520,-2.020,-0.188,-0.091,0.989,-0.096,0.104,0.034,0.000,0.000,0.266,0.193,2,2,0,2,7,255,1728,200,458,1728
stim,2160,2160,0,86286.369,0.991,0.045,0.014,0.122,1641,0,755,3229,184,413,557,4095,42,0.000,4,1,5.114,0.129,-0.740,-4.820,-1.540,-0.187,-0.088,0.997,-0.096,0.086,0.062,0.000,0.000,0.266,0.193,2,2,0,2,7,255,1728,200,463,1728
stim,2160,2160,0,86291.370,0.991,0.045,0.014,0.122,1623,0,771,3244,199,407,571,4095,42,0.000,4,1,5.326,0.111,-0.060,-5.040,-1.720,-0.189,-0.083,1.003,-0.070,0.086,0.136,0.000,0.000,0.266,0.193,2,2,0,2,7,255,1728,200,468,1728
stim,2160,2160,0,86296.369,0.991,0.045,0.015,0.122,1615,0,750,3225,173,413,567,4095,42,0.000,4,1,5.871,0.151,0.540,-5.340,-2.380,-0.196,-0.083,1.002,-0.070,0.134,0.190,0.000,0.000,0.266,0.193,2,2,0,2,7,255,1728,200,473,1728
stim,2160,2160,0,86301.369,0.991,0.045,0.015,0.122,1610,0,729,3223,149,413,565,4095,42,0.000,4,1,6.358,0.204,2.440,-5.340,-2.440,-0.204,-0.086,1.022,-0.138,0.150,0.194,0.000,0.000,0.266,0.193,2,2,0,2,7,255,1728,200,478,1728
stim,2223,2223,0,86306.369,0.991,0.044,0.015,0.122,1600,0,775,3235,124,380,565,4095,42,0.000,4,1,9.242,0.240,4.320,-8.120,-0.900,-0.221,-0.049,1.052,-0.180,0.158,0.394,0.000,0.000,0.266,0.193,2,2,0,2,7,255,1728,200,483,1728
stim,2223,2223,0,86311.369,0.991,0.044,0.015,0.122,1604,0,783,3231,173,397,567,4095,42,0.000,4,1,10.100,0.577,6.320,-7.260,3.060,-0.227,-0.034,1.043,-0.204,0.540,0.582,0.000,0.000,0.266,0.193,2,2,0,2,7,255,1728,200,488,1728
stim,2223,2223,0,86316.369,0.991,0.043,0.015,0.122,1598,0,700,3225,157,363,569,4095,42,0.000,4,1,15.021,0.630,8.700,-9.860,7.260,-0.234,-0.043,1.041,-0.242,0.582,0.582,0.000,0.000,0.266,0.193,2,2,0,2,7,255,1728,200,493,1728
stim,2223,2223,0,86321.369,0.992,0.043,0.016,0.122,1596,0,676,3223,116,392,566,4095,42,0.000,4,1,14.954,0.672,6.060,-10.220,9.080,-0.227,-0.086,1.045,-0.336,0.582,0.582,0.000,0.000,0.266,0.193,2,2,0,2,7,255,1728,200,498,1728
stim,2223,2223,0,86326.369,0.992,0.042,0.016,0.121,1603,0,661,3237,91,375,567,4095,42,0.000,4,1,17.598,0.370,7.260,-12.400,10.160,-0.212,-0.119,1.049,-0.336,0.154,0.628,0.000,0.000,0.266,0.193,2,2,0,2,7,255,1728,200,503,1728
stim,2223,2223,0,86331.369,0.992,0.042,0.017,0.121,1592,0,652,3231,100,398,548,4095,42,0.000,4,1,20.201,0.353,10.240,-13.040,11.540,-0.204,-0.115,1.060,-0.304,-0.180,0.668,0.000,0.000,0.266,0.193,2,2,0,2,7,255,1728,200,508,1728
stim,2223,2223,0,86336.369,0.992,0.041,0.017,0.120,1583,0,657,3237,60,314,549,4095,42,0.000,4,1,22.024,0.278,11.680,-14.600,11.640,-0.206,-0.089,1.052,-0.212,-0.180,0.668,0.000,0.000,0.266,0.193,2,2,0,2,7,255,1728,200,513,1728
stim,2223,2223,0,86341.369,0.992,0.041,0.018,0.120,1573,0,633,3239,149,349,539,4095,42,0.000,4,1,22.071,0.203,11.960,-15.360,10.400,-0.203,-0.070,1.055,-0.194,0.060,0.642,0.000,0.000,0.266,0.193,2,2,0,2,7,255,1728,200,518,1728
stim,2223,2223,0,86346.369,0.992,0.040,0.018,0.120,1573,0,604,3225,151,275,535,4095,42,0.000,4,1,22.269,0.254,12.060,-16.120,9.520,-0.205,-0.071,1.055,-0.162,0.196,0.642,0.000,0.000,0.266,0.193,2,2,0,2,7,255,1728,200,523,1728
stim,2223,2223,0,86351.369,0.992,0.040,0.019,0.120,1557,0,592,3225,139,299,519,4095,42,0.000,4,1,21.749,0.254,11.420,-17.000,7.320,-0.208,-0.094,1.058,-0.162,0.196,0.642,0.000,0.000,0.266,0.193,2,2,0,2,7,255,1728,200,528,1728
stim,2223,2223,0,86356.369,0.992,0.039,0.020,0.119,1544,0,496,3224,125,295,503,4095,42,0.000,4,1,22.233,0.263,11.340,-18.380,5.280,-0.210,-0.083,1.063,-0.250,0.082,0.684,0.000,0.000,0.266,0.193,2,2,0,2,7,255,1728,200,533,1728
stim,2223,2223,0,86361.369,0.992,0.039,0.021,0.119,1515,0,429,3223,125,256,467,4095,42,0.000,4,1,23.093,0.269,11.380,-19.680,4.060,-0.221,-0.059,1.063,-0.256,0.082,0.708,0.000,0.000,0.266,0.193,2,2,0,2,7,255,1728,200,538,1728
stim,2224,2224,0,86366.371,0.992,0.038,0.021,0.119,1508,0,331,3237,77,203,435,4095,42,0.000,4,1,23.727,0.451,12.460,-19.820,3.860,-0.225,-0.041,1.067,-0.310,0.328,0.724,0.000,0.000,0.266,0.193,2,2,0,2,7,255,1728,200,543,1728
stim,2224,2224,0,86371.369,0.992,0.037,0.022,0.119,1503,0,237,3222,62,199,325,4072,42,0.000,4,1,23.779,0.558,10.960,-20.700,4.100,-0.229,-0.044,1.073,-0.318,0.458,0.736,0.000,0.000,0.266,0.193,2,2,0,2,7,255,1728,200,548,1728
stim,2260,2260,0,86376.369,0.992,0.037,0.023,0.119,1500,0,358,3235,25,189,256,4088,42,0.000,4,1,23.863,0.574,6.920,-21.940,6.340,-0.224,-0.065,1.094,-0.346,0.458,0.792,0.000,0.000,0.266,0.193,2,2,0,2,7,255,1728,200,553,1728
stim,2260,2260,0,86381.369,0.992,0.037,0.024,0.118,1496,0,254,3226,19,221,237,4095,42,0.000,4,1,22.398,0.422,2.020,-19.280,11.220,-0.215,-0.109,1.130,-0.346,0.242,0.994,0.000,0.000,0.266,0.193,2,2,0,2,7,255,1728,200,558,1728
stim,2260,2260,0,86386.369,0.992,0.037,0.024,0.118,1477,0,239,3226,11,153,184,4095,42,0.000,4,1,21.480,0.388,-4.820,-13.980,15.580,-0.243,-0.250,1.241,-0.346,-0.176,1.352,0.000,0.000,0.266,0.193,2,2,0,2,7,255,1728,200,563,1728
stim,2260,2260,0,86391.369,0.992,0.037,0.025,0.117,1453,0,221,3223,9,187,173,3975,42,0.000,4,1,17.123,1.573,0.260,-11.700,12.500,-0.313,-0.299,1.410,-0.724,-1.396,2.544,0.000,0.000,0.266,0.193,2,2,0,2,7,255,1728,200,568,1728
stim,2320,2320,0,86396.369,0.992,0.036,0.026,0.117,1425,0,187,3235,7,176,108,3665,42,0.000,4,0,42.230,1.854,35.960,-16.680,14.560,-0.382,-0.237,1.470,-1.220,-1.396,4.276,0.000,0.000,0.266,0.193,2,2,0,2,7,255,1728,200,573,1728
stim,2320,2320,0,86401.369,0.992,0.032,0.027,0.116,1393,0,136,3213,11,216,109,3732,42,0.000,4,0,86.770,1.875,77.760,-21.200,32.140,-0.448,-0.205,1.296,-1.652,-0.886,4.276,0.000,0.000,0.266,0.193,2,2,0,2,7,255,1728,200,578,1728
stim,2320,2320,0,86406.369,0.993,0.027,0.028,0.115,1368,0,9,3225,6,176,111,3539,42,0.000,4,0,131.013,2.588,122.080,-11.800,46.060,-0.412,-0.129,0.976,-2.524,-0.570,3.288,0.000,0.000,0.266,0.193,2,2,0,2,7,255,1728,200,583,1728
stim,2320,2320,0,86411.369,0.993,0.020,0.029,0.113,1385,0,5,3230,12,179,122,3655,42,0.000,4,0,165.324,2.528,149.420,2.660,70.700,-0.212,0.168,0.617,-2.524,-0.134,0.078,0.000,0.000,0.266,0.193,2,2,0,2,7,255,1728,200,588,1728
stim,2320,2320,0,86416.369,0.993,0.014,0.029,0.110,1386,0,11,3226,19,206,121,3619,42,0.000,4,0,135.421,2.022,105.540,3.020,84.800,-0.171,0.167,0.410,-0.598,1.932,-3.824,0.000,0.000,0.266,0.193,2,2,0,2,7,255,1728,200,593,1728
stim,2320,2320,0,86421.369,0.994,0.012,0.029,0.107,1383,0,23,3224,12,220,95,3717,42,0.000,4,0,83.127,2.022,36.260,4.260,74.680,-0.126,-0.045,0.286,-0.598,1.932,-5.870,0.000,0.000,0.266,0.193,2,2,0,2,7,255,1728,200,598,1728
stim,2320,2320,0,86426.370,0.994,0.014,0.029,0.105,1376,0,27,3235,7,159,133,3723,42,0.000,4,0,61.066,0.799,-45.280,8.220,40.140,-0.146,-0.365,0.460,-0.770,-0.212,-5.870,0.000,0.000,0.266,0.193,2,2,0,2,7,255,1728,200,603,1728
stim,2321,2321,0,86431.369,0.994,0.019,0.028,0.104,1366,0,5,3228,1,184,123,3545,42,0.000,4,0,114.782,3.508,-114.420,0.960,9.060,-0.229,-0.532,0.789,-1.344,-3.240,-5.264,0.000,0.000,0.266,0.193,2,2,0,2,7,255,1728,200,608,1728
stim,2321,2321,0,86436.369,0.994,0.024,0.028,0.103,1363,0,12,3220,6,168,111,3671,42,0.000,4,0,118.998,3.777,-118.460,-11.060,2.340,-0.337,-0.403,1.197,-1.942,-3.240,-1.858,0.000,0.000,0.266,0.193,2,2,0,2,7,255,1728,200,613,1728
stim,2321,2321,0,86441.369,0.994,0.026,0.028,0.102,1361,0,18,3235,4,141,89,3558,42,0.000,4,0,64.688,3.580,-61.880,-9.840,16.080,-0.414,-0.172,1.422,-1.954,-3.000,2.246,0.000,0.000,0.266,0.193,2,2,0,2,7,255,1728,200,618,1728
stim,2321,2321,0,86446.369,0.994,0.025,0.028,0.100,1351,0,15,3236,2,151,91,3341,42,0.000,4,0,45.806,2.075,14.720,-3.440,43.240,-0.423,-0.089,1.346,-2.008,-0.522,3.656,0.000,0.000,0.266,0.193,2,2,0,2,7,255,1728,200,623,1728
stim,2321,2321,0,86451.369,0.995,0.022,0.029,0.098,1342,0,2,3219,2,199,89,3103,42,0.000,4,0,90.172,2.023,58.980,-5.820,67.960,-0.326,-0.180,0.957,-1.954,-0.522,3.656,0.000,0.000,0.266,0.193,2,2,0,2,7,255,1728,200,628,1728
stim,2321,2321,0,86456.369,0.995,0.019,0.029,0.095,1351,0,0,3221,5,209,91,2988,42,0.000,4,0,89.337,2.117,55.680,0.640,69.860,-0.195,-0.262,0.640,-1.882,-0.970,-0.210,0.000,0.000,0.266,0.193,2,2,0,2,7,255,1728,200,633,1728
stim,2321,2321,0,86461.369,0.995,0.018,0.029,0.093,1337,0,0,3229,13,200,88,3003,42,0.000,4,0,56.725,2.462,18.020,2.240,53.740,-0.100,-0.277,0.557,-1.276,-2.106,-3.454,0.000,0.000,0.266,0.193,2,2,0,2,7,255,1728,200,638,1728
stim,2342,2342,0,86466.369,0.995,0.019,0.029,0.092,1333,0,0,3230,11,217,89,2985,42,0.000,4,0,38.761,2.448,-26.660,-2.960,27.980,-0.064,-0.265,0.625,-0.520,-2.392,-3.790,0.000,0.000,0.266,0.193,2,2,0,2,7,255,1728,200,643,1728
stim,2342,2342,0,86471.369,0.995,0.021,0.029,0.091,1321,0,2,3224,17,234,99,3032,42,0.000,4,0,48.605,2.393,-48.580,-1.540,0.100,-0.107,-0.234,0.828,-0.084,-2.392,-3.790,0.000,0.000,0.266,0.193,2,2,0,2,7,255,1728,200,648,1728
stim,2343,2343,0,86476.369,0.995,0.023,0.029,0.092,1307,0,0,3229,16,235,91,2908,42,0.000,4,0,41.182,1.960,-37.580,1.680,-16.760,-0.208,-0.193,1.036,-0.084,-1.958,-1.766,0.000,0.000,0.266,0.193,2,2,0,2,7,255,1728,200,653,1728
stim,2343,2343,0,86481.369,0.995,0.023,0.028,0.092,1305,0,0,3227,17,245,88,2890,42,0.000,4,0,19.281,1.452,-7.560,3.340,-17.420,-0.305,-0.194,1.063,-0.638,-1.304,0.388,0.000,0.000,0.266,0.193,2,2,0,2,7,255,1728,200,658,1728
stim,2399,2399,0,86486.369,0.995,0.023,0.028,0.093,1299,0,0,3223,21,235,89,2860,42,0.000,4,0,18.364,1.880,16.800,3.460,-6.560,-0.342,-0.193,0.944,-1.514,-1.114,0.388,0.000,0.000,0.266,0.193,2,2,0,2,7,255,1728,200,663,1728
stim,2399,2399,0,86491.369,0.995,0.022,0.028,0.093,1289,0,0,3221,16,229,85,2863,42,0.000,4,0,21.911,2.161,21.260,1.440,5.100,-0.297,-0.186,0.784,-1.852,-1.114,-0.298,0.000,0.000,0.266,0.193,2,2,0,2,7,255,1728,200,668,1728
stim,2399,2399,0,86496.369,0.995,0.022,0.028,0.092,1271,0,0,3224,10,229,83,2843,42,0.000,4,0,11.595,2.166,9.660,3.460,5.400,-0.209,-0.178,0.716,-1.852,-1.124,-1.924,0.000,0.000,0.266,0.193,2,2,0,2,7,255,1728,200,673,1728
stim,2399,2399,0,86501.369,0.995,0.022,0.027,0.093,1253,0,0,3220,13,235,87,2864,42,0.000,4,0,8.603,1.658,-4.820,2.480,-6.680,-0.137,-0.185,0.754,-1.108,-1.234,-2.454,0.000,0.000,0.266,0.193,2,2,0,2,7,255,1728,200,678,1728
stim,2399,2399,0,86506.369,0.995,0.023,0.027,0.094,1245,0,0,3216,10,233,87,2848,42,0.000,4,0,28.576,1.471,-10.180,4.380,-26.340,-0.136,-0.199,0.831,-0.370,-1.424,-2.454,0.000,0.000,0.266,0.193,2,2,0,2,7,255,1728,200,683,1728
stim,2399,2399,0,86511.369,0.995,0.024,0.027,0.095,1237,0,0,3229,19,219,85,2843,42,0.000,4,0,41.653,1.471,-5.780,5.660,-40.860,-0.202,-0.173,0.882,-0.370,-1.424,-1.700,0.000,0.000,0.266,0.193,2,2,0,2,7,255,1728,200,688,1728
stim,2399,2399,0,86516.369,0.995,0.024,0.026,0.097,1227,0,0,3225,16,233,77,2834,42,0.000,4,0,42.785,1.370,1.540,8.220,-41.960,-0.285,-0.131,0.869,-0.760,-1.140,-1.136,0.000,0.000,0.266,0.193,2,2,0,2,7,255,1728,200,693,1728
stim,2399,2399,0,86521.369,0.994,0.024,0.026,0.099,1210,0,0,3227,15,251,85,2854,42,0.000,4,0,34.346,1.588,3.360,9.620,-32.800,-0.321,-0.102,0.834,-1.484,-0.564,-1.136,0.000,0.000,0.266,0.193,2,2,0,2,7,255,1728,200,698,1728
stim,2431,2431,0,86526.369,0.994,0.024,0.025,0.100,1182,0,0,3223,19,259,87,2823,42,0.000,4,0,25.006,1.603,-0.360,10.780,-22.560,-0.300,-0.084,0.826,-1.588,-0.218,-1.434,0.000,0.000,0.266,0.193,2,2,0,2,7,255,1728,200,703,1728
stim,2431,2431,0,86531.369,0.994,0.024,0.025,0.100,1172,0,0,3221,21,247,86,2839,42,0.000,4,0,22.826,1.590,-4.320,11.760,-19.080,-0.255,-0.063,0.844,-1.588,-0.082,-1.450,0.000,0.000,0.266,0.193,2,2,0,2,7,255,1728,200,708,1728
stim,2431,2431,0,86536.369,0.994,0.025,0.024,0.101,1161,0,0,3223,17,231,83,2816,42,0.000,4,0,26.736,1.080,-5.360,12.680,-22.920,-0.234,-0.046,0.867,-1.080,0.032,-1.450,0.000,0.000,0.266,0.193,2,2,0,2,7,255,1728,200,713,1728
stim,2431,2431,0,86541.369,0.994,0.025,0.023,0.103,1141,0,0,3221,17,230,89,2825,42,0.000,4,0,31.226,0.935,-4.940,13.460,-27.740,-0.254,-0.015,0.860,-0.920,0.164,-1.324,0.000,0.000,0.266,0.193,2,2,0,2,7,255,1728,200,718,1728
stim,2431,2431,0,86546.369,0.994,0.025,0.022,0.104,1131,0,0,3215,16,222,78,2799,42,0.000,4,0,30.905,1.054,-6.280,13.780,-26.940,-0.294,0.026,0.843,-0.920,0.514,-1.324,0.000,0.000,0.266,0.193,2,2,0,2,7,255,1728,200,723,1728
stim,2431,2431,0,86551.369,0.994,0.026,0.022,0.104,1117,0,0,3223,18,225,74,2813,42,0.000,4,0,26.323,1.580,-10.420,13.780,-19.860,-0.320,0.073,0.833,-1.228,0.994,-1.442,0.000,0.000,0.266,0.193,2,2,0,2,7,255,1728,200,728,1728
stim,2431,2431,0,86556.370,0.994,0.026,0.021,0.105,1115,0,0,3227,9,224,75,2803,42,0.000,4,0,23.964,1.971,-16.660,13.640,-10.520,-0.319,0.099,0.845,-1.278,1.500,-1.442,0.000,0.000,0.266,0.193,2,2,0,2,7,255,1728,200,733,1728
stim,2431,2431,0,86561.369,0.994,0.027,0.020,0.105,1113,0,0,3224,20,223,78,2830,42,0.000,4,0,26.074,2.125,-22.020,13.720,-2.600,-0.297,0.096,0.873,-1.278,1.698,-1.418,0.000,0.000,0.266,0.193,2,2,0,2,7,255,1728,200,738,1728
stim,2433,2433,0,86566.369,0.994,0.028,0.019,0.105,1100,0,0,3231,16,224,74,2807,42,0.000,4,0,28.770,1.979,-25.140,13.840,2.040,-0.274,0.082,0.907,-1.016,1.698,-1.188,0.000,0.000,0.266,0.193,2,2,0,2,7,255,1728,200,743,1728
stim,2433,2433,0,86571.369,0.994,0.028,0.018,0.104,1083,0,0,3223,19,227,64,2809,42,0.000,4,0,29.651,1.788,-25.620,14.200,4.600,-0.259,0.093,0.931,-0.748,1.624,-0.890,0.000,0.000,0.266,0.193,2,2,0,2,7,255,1728,200,748,1728
stim,2434,2434,0,86576.369,0.994,0.029,0.017,0.104,1079,0,0,3216,10,229,73,2789,42,0.000,4,0,30.719,1.706,-26.060,14.380,7.600,-0.252,0.117,0.941,-0.524,1.624,-0.686,0.000,0.000,0.266,0.193,2,2,0,2,7,255,1728,200,753,1728
stim,2434,2434,0,86581.369,0.994,0.030,0.016,0.103,1069,0,0,3227,14,219,71,2797,42,0.000,4,0,32.995,1.887,-27.220,14.440,11.800,-0.244,0.121,0.946,-0.384,1.848,-0.618,0.000,0.000,0.266,0.193,2,2,0,2,7,255,1728,200,758,1728
stim,2463,2463,0,86586.369,0.994,0.031,0.016,0.102,1049,0,0,3231,14,224,69,2785,42,0.000,4,0,36.459,1.867,-29.400,14.020,16.380,-0.229,0.111,0.961,-0.268,1.848,-0.590,0.000,0.000,0.266,0.193,2,2,0,2,7,255,1728,200,763,1728
stim,2463,2463,0,86591.369,0.994,0.031,0.015,0.101,1047,0,0,3221,17,227,79,2807,42,0.000,4,0,39.095,1.778,-31.060,13.280,19.680,-0.208,0.103,0.988,-0.114,1.774,-0.464,0.000,0.000,0.266,0.193,2,2,0,2,7,255,1728,200,768,1728
stim,2463,2463,0,86596.369,0.994,0.032,0.014,0.100,1024,0,0,3235,18,237,75,2791,42,0.000,4,0,39.894,1.678,-31.180,12.500,21.520,-0.186,0.100,1.023,0.140,1.672,-0.236,0.000,0.000,0.266,0.193,2,2,0,2,7,255,1728,200,773,1728
stim,2463,2463,0,86601.369,0.994,0.033,0.014,0.099,1013,0,0,3228,13,233,77,2794,42,0.000,4,0,38.511,1.681,-29.160,11.640,22.300,-0.169,0.090,1.050,0.418,1.628,0.062,0.000,0.000,0.266,0.193,2,2,0,2,7,255,1728,200,778,1728
stim,2517,2517,0,86606.369,0.995,0.034,0.013,0.098,1005,0,0,3219,10,237,74,2776,42,0.000,4,0,35.899,1.650,-25.500,11.140,22.680,-0.157,0.081,1.066,0.614,1.532,0.296,0.000,0.000,0.266,0.193,2,2,0,2,7,255,1728,200,783,1728
stim,2517,2517,0,86611.369,0.995,0.034,0.012,0.097,995,0,0,3223,16,237,71,2781,42,0.000,4,0,33.585,1.618,-21.480,10.780,23.460,-0.145,0.080,1.069,0.754,1.432,0.428,0.000,0.000,0.266,0.193,2,2,0,2,7,255,1728,200,788,1728
stim,2519,2519,0,86616.369,0.995,0.035,0.012,0.095,987,0,0,3225,16,245,85,2811,42,0.000,4,0,32.345,1.683,-18.900,10.720,23.960,-0.134,0.093,1.067,0.884,1.432,0.428,0.000,0.000,0.266,0.193,2,2,0,2,7,255,1728,200,793,1728
stim,2519,2519,0,86621.369,0.995,0.035,0.012,0.094,965,0,0,3219,11,234,79,2805,42,0.000,4,0,31.457,1.831,-17.820,10.900,23.520,-0.121,0.096,1.066,1.014,1.524,0.384,0.000,0.000,0.266,0.193,2,2,0,2,7,255,1728,200,798,1728
stim,2532,2532,0,86626.369,0.995,0.035,0.011,0.093,949,0,0,3227,19,235,83,2772,42,0.000,4,0,30.139,1.907,-16.960,11.580,22.060,-0.115,0.087,1.073,1.146,1.524,0.384,0.000,0.000,0.266,0.193,2,2,0,2,7,255,1728,200,803,1728
stim,2532,2532,0,86631.369,0.995,0.036,0.011,0.092,949,0,0,3220,21,235,89,2718,42,0.000,4,0,28.173,1.888,-15.500,12.420,19.980,-0.117,0.081,1.082,1.204,1.454,0.412,0.000,0.000,0.266,0.193,2,2,0,2,7,255,1728,200,808,1728
stim,2532,2532,0,86636.369,0.995,0.036,0.010,0.092,941,0,0,3223,18,234,85,2714,42,0.000,4,0,26.002,1.888,-13.060,13.340,18.100,-0.125,0.089,1.088,1.204,1.454,0.502,0.000,0.000,0.266,0.193,2,2,0,2,7,255,1728,200,813,1728
stim,2532,2532,0,86641.369,0.995,0.036,0.009,0.091,947,0,0,3233,19,239,74,2773,42,0.000,4,0,24.707,1.904,-10.300,14.320,17.300,-0.137,0.097,1.086,1.162,1.508,0.566,0.000,0.000,0.266,0.193,2,2,0,2,7,255,1728,200,818,1728
stim,2532,2532,0,86646.369,0.995,0.036,0.009,0.090,947,0,0,3219,19,237,78,2759,42,0.000,4,0,23.861,1.928,-8.160,14.620,17.000,-0.147,0.096,1.079,1.076,1.600,0.566,0.000,0.000,0.266,0.193,2,2,0,2,7,255,1728,200,823,1728
stim,2532,2532,0,86651.369,0.995,0.036,0.008,0.089,936,0,0,3223,21,238,79,2742,42,0.000,4,0,23.402,1.879,-7.140,14.620,16.820,-0.154,0.099,1.072,0.968,1.610,0.510,0.000,0.000,0.266,0.193,2,2,0,2,7,255,1728,200,828,1728
stim,2532,2532,0,86656.369,0.995,0.035,0.008,0.089,933,0,0,3216,22,237,85,2747,42,0.000,4,0,22.698,1.880,-6.580,14.200,16.440,-0.154,0.099,1.072,0.916,1.642,0.460,0.000,0.000,0.266,0.193,2,2,0,2,7,255,1728,200,833,1728
