condition_phase,condition_phase_elapsed_ms,condition_elapsed_ms,is_stimulation_on,t_ms,R_q0,R_q1,R_q2,R_q3,R_heel1,R_mid1,R_fore1,R_heel2,R_fore3,R_mid2,R_fore4,R_fore2,R_cadence,R_speed,R_steps,R_zupt,R_gyroNorm,R_accH,R_gyro_x,R_gyro_y,R_gyro_z,R_acc_x,R_acc_y,R_acc_z,R_nav_ax,R_nav_ay,R_nav_az,R_stepVel,R_stepVelj,R_stepDispRaw,R_stepDispZUPT,R_gaitEvent,R_motorMode,R_motorActive,R_motorAlignment,R_motorRegionMask,R_motorAmplitude,R_motorIntervalMs,R_motorDurationMs,R_motorPhaseMs,R_motorCycleMs
stim,15,15,0,200946.369,-0.925,-0.134,-0.023,0.356,3275,519,1403,3562,325,1636,462,1191,42,0.000,4,1,5.864,0.107,-3.020,0.680,4.980,-0.249,-0.251,0.930,-0.082,0.068,-0.052,0.000,0.000,0.175,0.124,2,2,0,2,7,255,1296,250,0,0
stim,15,15,0,200951.370,-0.924,-0.134,-0.023,0.356,3289,519,1403,3567,316,1642,464,1198,42,0.000,4,1,4.955,0.122,-3.140,1.000,3.700,-0.249,-0.241,0.927,-0.082,0.090,-0.052,0.000,0.000,0.175,0.124,2,2,0,2,7,255,1296,250,0,0
stim,80,80,0,200956.369,-0.924,-0.134,-0.023,0.356,3289,507,1418,3571,320,1637,457,1193,42,0.000,4,1,5.731,0.122,-3.260,0.560,4.680,-0.251,-0.312,0.943,-0.082,0.090,-0.052,0.000,0.000,0.175,0.124,2,2,0,2,7,255,1296,250,0,0
stim,80,80,0,200961.369,-0.924,-0.134,-0.023,0.357,3273,517,1420,3551,327,1639,461,1197,42,0.000,4,1,5.301,0.208,-3.020,0.560,4.320,-0.249,-0.218,0.920,-0.148,0.146,-0.100,0.000,0.000,0.175,0.124,2,2,0,2,7,255,1296,250,0,0
stim,81,81,0,200966.369,-0.924,-0.134,-0.023,0.357,3272,518,1423,3565,317,1635,461,1207,42,0.000,4,1,4.844,0.283,-3.200,1.120,3.460,-0.252,-0.296,0.938,0.180,-0.218,0.148,0.000,0.000,0.175,0.124,2,2,0,2,7,255,1296,250,0,0
stim,81,81,0,200971.369,-0.924,-0.134,-0.023,0.357,3277,521,1421,3559,318,1636,463,1237,42,0.000,4,1,6.420,0.034,-3.440,0.080,5.420,-0.249,-0.260,0.929,-0.024,0.024,-0.034,0.000,0.000,0.175,0.124,2,2,0,2,7,255,1296,250,0,0
stim,82,82,0,200976.369,-0.924,-0.134,-0.023,0.357,3281,518,1419,3567,326,1636,461,1193,42,0.000,4,1,4.626,0.034,-3.020,1.060,3.340,-0.249,-0.246,0.931,-0.024,0.024,-0.034,0.000,0.000,0.175,0.124,2,2,0,2,7,255,1296,250,0,0
stim,82,82,0,200981.369,-0.924,-0.134,-0.023,0.357,3276,520,1415,3569,327,1631,459,1209,42,0.000,4,1,6.073,0.034,-3.320,0.680,5.040,-0.247,-0.295,0.939,-0.024,0.024,-0.034,0.000,0.000,0.175,0.124,2,2,0,2,7,255,1296,250,0,0
stim,112,112,0,200986.369,-0.924,-0.133,-0.023,0.357,3281,509,1419,3566,320,1635,463,1228,42,0.000,4,1,4.329,0.164,-2.760,0.320,3.320,-0.252,-0.227,0.919,-0.110,0.122,-0.058,0.000,0.000,0.175,0.124,2,2,0,2,7,255,1296,250,0,0
stim,112,112,0,200991.369,-0.924,-0.134,-0.023,0.358,3277,512,1417,3572,317,1631,457,1209,42,0.000,4,1,5.689,0.278,-3.240,1.120,4.540,-0.245,-0.300,0.946,0.218,-0.172,0.148,0.000,0.000,0.175,0.124,2,2,0,2,7,255,1296,250,0,0
stim,112,112,0,200996.369,-0.924,-0.133,-0.023,0.358,3288,509,1414,3556,327,1635,458,1300,42,0.000,4,1,4.673,0.238,-2.880,0.020,3.680,-0.256,-0.237,0.914,-0.226,0.074,-0.204,0.000,0.000,0.175,0.124,2,2,0,2,7,255,1296,250,0,0
stim,112,112,0,201001.369,-0.924,-0.133,-0.023,0.358,3272,504,1403,3559,325,1635,459,1259,42,0.000,4,1,5.430,0.171,-3.300,1.060,4.180,-0.242,-0.282,0.947,0.168,-0.032,0.168,0.000,0.000,0.175,0.124,2,2,0,2,7,255,1296,250,0,0
stim,112,112,0,201006.369,-0.924,-0.133,-0.023,0.358,3284,503,1403,3559,327,1635,463,1245,42,0.000,4,1,4.944,0.091,-2.880,0.380,4.000,-0.254,-0.256,0.920,-0.088,-0.022,-0.116,0.000,0.000,0.175,0.124,2,2,0,2,7,255,1296,250,0,0
stim,112,112,0,201011.369,-0.924,-0.133,-0.023,0.358,3279,506,1417,3557,317,1629,463,1242,42,0.000,4,1,4.329,0.085,-2.880,0.980,3.080,-0.241,-0.267,0.944,0.082,-0.022,0.096,0.000,0.000,0.175,0.124,2,2,0,2,7,255,1296,250,0,0
stim,112,112,0,201016.369,-0.924,-0.133,-0.023,0.358,3281,507,1407,3567,330,1635,461,1244,42,0.000,4,1,4.939,0.085,-2.880,0.320,4.000,-0.256,-0.259,0.920,-0.082,-0.022,-0.098,0.000,0.000,0.175,0.124,2,2,0,2,7,255,1296,250,0,0
stim,112,112,0,201021.369,-0.924,-0.133,-0.023,0.359,3284,504,1405,3563,328,1636,460,1259,42,0.000,4,1,4.751,0.051,-3.060,0.980,3.500,-0.251,-0.272,0.944,0.038,-0.034,0.096,0.000,0.000,0.175,0.124,2,2,0,2,7,255,1296,250,0,0
stim,112,112,0,201026.369,-0.924,-0.133,-0.023,0.359,3291,501,1415,3562,334,1629,461,1254,42,0.000,4,1,5.612,0.089,-2.940,0.020,4.780,-0.252,-0.242,0.920,-0.082,-0.034,-0.098,0.000,0.000,0.175,0.124,2,2,0,2,7,255,1296,250,0,0
stim,112,112,0,201031.369,-0.924,-0.133,-0.023,0.359,3273,492,1415,3561,320,1635,463,1267,42,0.000,4,1,5.682,0.051,-3.120,1.180,4.600,-0.244,-0.289,0.945,0.038,-0.034,0.138,0.000,0.000,0.175,0.124,2,2,0,2,7,255,1296,250,0,0
stim,112,112,0,201036.369,-0.924,-0.133,-0.023,0.359,3283,499,1425,3573,325,1633,461,1184,42,0.000,4,1,4.176,0.148,-2.360,0.180,3.440,-0.249,-0.243,0.922,-0.126,0.078,-0.144,0.000,0.000,0.175,0.124,2,2,0,2,7,255,1296,250,0,0
stim,112,112,0,201041.369,-0.923,-0.133,-0.023,0.359,3289,495,1445,3573,329,1631,463,1199,42,0.000,4,1,5.044,0.081,-3.220,1.040,3.740,-0.245,-0.271,0.937,0.080,-0.014,0.056,0.000,0.000,0.175,0.124,2,2,0,2,7,255,1296,250,0,0
stim,112,112,0,201046.371,-0.923,-0.133,-0.023,0.359,3281,489,1437,3556,317,1634,467,1201,42,0.000,4,1,4.305,0.015,-2.780,0.420,3.260,-0.253,-0.268,0.931,-0.004,-0.014,0.012,0.000,0.000,0.175,0.124,2,2,0,2,7,255,1296,250,0,0
stim,112,112,0,201051.369,-0.923,-0.133,-0.023,0.360,3273,495,1445,3575,328,1629,467,1252,42,0.000,4,1,5.096,0.015,-3.220,0.480,3.920,-0.254,-0.249,0.929,-0.004,-0.014,0.012,0.000,0.000,0.175,0.124,2,2,0,2,7,255,1296,250,0,0
stim,128,128,0,201056.369,-0.923,-0.133,-0.023,0.360,3283,493,1439,3573,318,1624,467,1259,42,0.000,4,1,5.443,0.062,-3.020,0.660,4.480,-0.249,-0.275,0.939,-0.004,-0.062,0.012,0.000,0.000,0.175,0.124,2,2,0,2,7,255,1296,250,0,1296
stim,128,128,0,201061.369,-0.923,-0.132,-0.023,0.360,3283,492,1440,3567,327,1625,463,1246,42,0.000,4,1,5.276,0.079,-2.840,0.480,4.420,-0.248,-0.251,0.927,-0.064,0.046,-0.054,0.000,0.000,0.175,0.124,2,2,0,2,7,255,1296,250,0,1296
stim,15,15,0,201066.369,-0.923,-0.132,-0.023,0.360,3283,491,1439,3556,317,1629,467,1193,42,0.000,4,1,4.990,0.082,-3.100,0.920,3.800,-0.240,-0.264,0.934,0.074,0.036,-0.004,0.000,0.000,0.175,0.124,2,2,0,3,7,255,1296,300,2,1296
stim,16,16,0,201071.369,-0.923,-0.132,-0.023,0.360,3289,491,1451,3575,318,1631,467,1233,42,0.000,4,1,4.567,0.036,-3.280,0.780,3.080,-0.250,-0.264,0.931,-0.002,0.036,-0.004,0.000,0.000,0.175,0.124,2,2,0,3,7,255,1296,300,7,1296
stim,16,16,0,201076.369,-0.923,-0.132,-0.023,0.360,3289,488,1448,3561,319,1640,468,1189,42,0.000,4,1,5.258,0.003,-3.520,0.600,3.860,-0.256,-0.252,0.928,-0.002,0.002,-0.004,0.000,0.000,0.175,0.124,2,2,0,3,7,255,1296,300,12,1296
stim,16,16,0,201081.369,-0.923,-0.132,-0.023,0.361,3278,478,1447,3564,315,1631,469,1196,42,0.000,4,1,5.714,0.003,-3.460,0.780,4.480,-0.248,-0.260,0.936,-0.002,0.002,0.000,0.000,0.000,0.175,0.124,2,2,0,3,7,255,1296,300,17,1296
stim,78,78,0,201086.369,-0.923,-0.132,-0.023,0.361,3279,481,1447,3565,326,1637,468,1243,42,0.000,4,1,5.117,0.002,-2.960,0.780,4.100,-0.247,-0.270,0.935,0.000,0.002,0.022,0.000,0.000,0.175,0.124,2,2,0,3,7,255,1296,300,22,1296
stim,79,79,0,201091.369,-0.923,-0.132,-0.023,0.361,3279,476,1440,3559,327,1635,463,1196,42,0.000,4,1,5.164,0.010,-3.160,0.600,4.040,-0.250,-0.258,0.926,0.000,-0.010,0.022,0.000,0.000,0.175,0.124,2,2,0,3,7,255,1296,300,27,1296
stim,79,79,0,201096.369,-0.923,-0.132,-0.023,0.361,3283,519,1415,3557,314,1635,467,1211,42,0.000,4,1,5.478,0.021,-3.640,0.660,4.040,-0.249,-0.259,0.932,-0.018,-0.010,-0.006,0.000,0.000,0.175,0.124,2,2,0,3,7,255,1296,300,32,1296
stim,79,79,0,201101.369,-0.923,-0.132,-0.023,0.361,3287,496,1420,3557,333,1633,468,1235,42,0.000,4,1,5.192,0.018,-3.340,0.660,3.920,-0.246,-0.266,0.938,-0.018,-0.004,-0.006,0.000,0.000,0.175,0.124,2,2,0,3,7,255,1296,300,37,1296
stim,79,79,0,201106.369,-0.923,-0.132,-0.023,0.361,3271,476,1421,3559,341,1639,467,1179,42,0.000,4,1,5.088,0.006,-3.100,0.660,3.980,-0.249,-0.262,0.932,0.004,-0.004,0.000,0.000,0.000,0.175,0.124,2,2,0,3,7,255,1296,300,42,1296
stim,79,79,0,201111.370,-0.923,-0.132,-0.023,0.362,3275,499,1447,3575,360,1627,464,1181,42,0.000,4,1,5.226,0.006,-3.160,0.720,4.100,-0.249,-0.257,0.930,0.004,-0.004,0.000,0.000,0.000,0.175,0.124,2,2,0,3,7,255,1296,300,47,1296
stim,79,79,0,201116.369,-0.923,-0.132,-0.023,0.362,3279,496,1418,3559,360,1630,465,1181,42,0.000,4,1,5.059,0.016,-3.160,0.840,3.860,-0.242,-0.264,0.935,0.004,0.016,0.000,0.000,0.000,0.175,0.124,2,2,0,3,7,255,1296,300,52,1296
stim,79,79,0,201121.369,-0.923,-0.132,-0.023,0.362,3286,487,1432,3561,359,1627,462,1181,42,0.000,4,1,4.644,0.025,-3.020,0.780,3.440,-0.247,-0.258,0.932,-0.012,0.022,-0.016,0.000,0.000,0.175,0.124,2,2,0,3,7,255,1296,300,57,1296
stim,79,79,0,201126.369,-0.923,-0.132,-0.023,0.362,3282,495,1431,3559,363,1628,462,1187,42,0.000,4,1,5.006,0.025,-3.220,0.840,3.740,-0.252,-0.257,0.932,-0.012,0.022,-0.004,0.000,0.000,0.175,0.124,2,2,0,3,7,255,1296,300,62,1296
stim,79,79,0,201131.369,-0.922,-0.131,-0.023,0.362,3275,505,1435,3559,353,1633,461,1184,42,0.000,4,1,5.599,0.057,-3.280,0.720,4.480,-0.252,-0.255,0.933,-0.056,0.010,-0.006,0.000,0.000,0.175,0.124,2,2,0,3,7,255,1296,300,67,1296
stim,79,79,0,201136.369,-0.922,-0.131,-0.023,0.362,3277,509,1433,3557,361,1631,465,1187,42,0.000,4,1,5.803,0.057,-3.100,0.800,4.840,-0.244,-0.259,0.934,-0.056,0.010,-0.004,0.000,0.000,0.175,0.124,2,2,0,3,7,255,1296,300,72,1296
stim,79,79,0,201141.369,-0.922,-0.131,-0.023,0.363,3272,520,1440,3566,361,1635,467,1179,42,0.000,4,1,5.442,0.031,-2.980,0.920,4.460,-0.243,-0.261,0.933,0.022,0.022,-0.006,0.000,0.000,0.175,0.124,2,2,0,3,7,255,1296,300,77,1296
stim,79,79,0,201146.369,-0.922,-0.131,-0.023,0.363,3279,520,1445,3561,357,1637,463,1185,42,0.000,4,1,5.130,0.031,-3.160,0.980,3.920,-0.247,-0.260,0.931,0.022,0.022,-0.014,0.000,0.000,0.175,0.124,2,2,0,3,7,255,1296,300,82,1296
stim,79,79,0,201151.369,-0.922,-0.131,-0.023,0.363,3283,522,1438,3547,352,1631,465,1208,42,0.000,4,1,5.187,0.006,-3.340,0.920,3.860,-0.251,-0.257,0.931,0.006,-0.002,-0.014,0.000,0.000,0.175,0.124,2,2,0,3,7,255,1296,300,87,1296
stim,95,95,0,201156.369,-0.922,-0.131,-0.023,0.363,3277,524,1447,3561,350,1635,459,1231,42,0.000,4,1,5.602,0.030,-3.420,0.920,4.340,-0.250,-0.257,0.935,-0.030,-0.002,-0.014,0.000,0.000,0.175,0.124,2,2,0,3,7,255,1296,300,92,1296
stim,95,95,0,201161.369,-0.922,-0.131,-0.023,0.363,3289,525,1448,3567,359,1638,460,1175,42,0.000,4,1,5.803,0.031,-3.160,0.920,4.780,-0.248,-0.259,0.935,-0.030,0.006,0.014,0.000,0.000,0.175,0.124,2,2,0,3,7,255,1296,300,97,1296
stim,96,96,0,201166.369,-0.922,-0.131,-0.023,0.364,3289,527,1444,3548,345,1634,467,1173,42,0.000,4,1,5.633,0.012,-3.100,0.980,4.600,-0.246,-0.260,0.934,-0.002,0.012,0.014,0.000,0.000,0.175,0.124,2,2,0,3,7,255,1296,300,102,1296
stim,96,96,0,201171.369,-0.922,-0.131,-0.023,0.364,3275,525,1446,3550,349,1631,462,1174,42,0.000,4,1,5.374,0.017,-3.160,1.040,4.220,-0.246,-0.259,0.932,0.012,0.012,0.004,0.000,0.000,0.175,0.124,2,2,0,3,7,255,1296,300,107,1296
stim,159,159,0,201176.369,-0.922,-0.131,-0.023,0.364,3274,531,1445,3565,345,1635,465,1171,42,0.000,4,1,5.344,0.016,-3.340,1.040,4.040,-0.250,-0.258,0.933,0.012,0.010,-0.002,0.000,0.000,0.175,0.124,2,2,0,3,7,255,1296,300,112,1296
stim,159,159,0,201181.369,-0.922,-0.131,-0.023,0.364,3274,533,1445,3575,348,1637,465,1173,42,0.000,4,1,5.511,0.018,-3.480,0.980,4.160,-0.251,-0.257,0.935,-0.018,-0.002,-0.002,0.000,0.000,0.175,0.124,2,2,0,3,7,255,1296,300,117,1296
stim,160,160,0,201186.369,-0.922,-0.131,-0.023,0.364,3274,533,1433,3576,353,1627,461,1175,42,0.000,4,1,5.811,0.026,-3.460,1.000,4.560,-0.250,-0.257,0.935,-0.026,-0.002,0.014,0.000,0.000,0.175,0.124,2,2,0,3,7,255,1296,300,122,1296
stim,160,160,0,201191.369,-0.922,-0.131,-0.023,0.364,3276,536,1436,3573,353,1628,459,1183,42,0.000,4,1,5.858,0.026,-3.460,1.000,4.620,-0.249,-0.257,0.933,-0.026,0.000,0.014,0.000,0.000,0.175,0.124,2,2,0,3,7,255,1296,300,127,1296
stim,162,162,0,201196.369,-0.922,-0.131,-0.023,0.365,3277,536,1431,3571,353,1629,462,1184,42,0.000,4,1,5.847,0.014,-3.580,1.060,4.500,-0.247,-0.257,0.934,-0.014,0.002,-0.002,0.000,0.000,0.175,0.124,2,2,0,3,7,255,1296,300,132,1296
stim,162,162,0,201201.369,-0.922,-0.131,-0.023,0.365,3275,539,1424,3545,347,1633,460,1189,42,0.000,4,1,5.771,0.002,-3.700,1.060,4.300,-0.249,-0.259,0.933,0.000,0.002,-0.002,0.000,0.000,0.175,0.124,2,2,0,3,7,255,1296,300,137,1296
stim,163,163,0,201206.369,-0.922,-0.131,-0.023,0.365,3280,538,1425,3545,350,1632,465,1195,42,0.000,4,1,5.777,0.006,-3.760,1.120,4.240,-0.249,-0.258,0.935,0.000,0.006,0.000,0.000,0.000,0.175,0.124,2,2,0,3,7,255,1296,300,142,1296
stim,163,163,0,201211.369,-0.921,-0.130,-0.023,0.365,3274,541,1426,3563,351,1634,461,1151,42,0.000,4,1,5.699,0.006,-3.640,1.120,4.240,-0.250,-0.256,0.934,-0.004,0.004,0.006,0.000,0.000,0.175,0.124,2,2,0,3,7,255,1296,300,147,1296
stim,169,169,0,201216.369,-0.921,-0.130,-0.023,0.365,3276,543,1431,3562,353,1636,465,1156,42,0.000,4,1,5.752,0.006,-3.580,1.120,4.360,-0.249,-0.258,0.934,-0.004,0.004,0.006,0.000,0.000,0.175,0.124,2,2,0,3,7,255,1296,300,152,1296
stim,169,169,0,201221.369,-0.921,-0.130,-0.023,0.366,3283,538,1421,3559,355,1628,463,1149,42,0.000,4,1,5.778,0.006,-3.640,1.060,4.360,-0.250,-0.258,0.933,-0.006,-0.002,0.002,0.000,0.000,0.175,0.124,2,2,0,3,7,255,1296,300,157,1296
stim,169,169,0,201226.369,-0.921,-0.130,-0.023,0.366,3283,537,1425,3563,362,1630,461,1152,42,0.000,4,1,5.837,0.002,-3.760,1.200,4.300,-0.248,-0.258,0.933,0.000,-0.002,-0.004,0.000,0.000,0.175,0.124,2,2,0,3,7,255,1296,300,162,1296
stim,169,169,0,201231.369,-0.921,-0.130,-0.023,0.366,3281,539,1419,3558,354,1637,467,1160,42,0.000,4,1,5.854,0.006,-3.760,1.060,4.360,-0.249,-0.257,0.934,-0.006,0.002,-0.004,0.000,0.000,0.175,0.124,2,2,0,3,7,255,1296,300,167,1296
stim,171,171,0,201236.369,-0.921,-0.130,-0.023,0.366,3288,536,1418,3570,361,1627,464,1160,42,0.000,4,1,5.782,0.006,-3.640,1.160,4.340,-0.248,-0.258,0.936,0.002,0.006,0.004,0.000,0.000,0.175,0.124,2,2,0,3,7,255,1296,300,172,1296
stim,171,171,0,201241.369,-0.921,-0.130,-0.023,0.366,3276,539,1417,3567,352,1627,466,1161,42,0.000,4,1,5.576,0.008,-3.400,1.100,4.280,-0.248,-0.258,0.935,0.006,0.006,0.014,0.000,0.000,0.175,0.124,2,2,0,3,7,255,1296,300,177,1296
stim,190,190,0,201246.370,-0.921,-0.130,-0.023,0.366,3276,539,1424,3561,352,1631,468,1158,42,0.000,4,1,5.460,0.010,-3.340,1.160,4.160,-0.248,-0.258,0.934,0.008,0.006,0.014,0.000,0.000,0.175,0.124,2,2,0,3,7,255,1296,300,182,1296
stim,190,190,0,201251.370,-0.921,-0.130,-0.023,0.367,3289,541,1420,3577,348,1630,471,1171,42,0.000,4,1,5.542,0.009,-3.400,1.160,4.220,-0.249,-0.258,0.932,0.008,-0.004,0.002,0.000,0.000,0.175,0.124,2,2,0,3,7,255,1296,300,187,1296
stim,190,190,0,201256.369,-0.921,-0.130,-0.023,0.367,3277,541,1419,3576,349,1628,471,1175,42,0.000,4,1,5.716,0.004,-3.460,1.160,4.400,-0.248,-0.257,0.933,0.002,-0.004,-0.006,0.000,0.000,0.175,0.124,2,2,0,3,7,255,1296,300,192,1296
stim,190,190,0,201261.369,-0.921,-0.130,-0.023,0.367,3283,540,1427,3567,349,1635,471,1237,42,0.000,4,1,5.598,0.008,-3.340,1.160,4.340,-0.249,-0.258,0.935,0.002,-0.008,-0.006,0.000,0.000,0.175,0.124,2,2,0,3,7,255,1296,300,197,1296
stim,259,259,0,201266.369,-0.921,-0.130,-0.023,0.367,3281,541,1431,3571,350,1619,473,1170,42,0.000,4,1,5.468,0.002,-3.200,1.160,4.280,-0.249,-0.257,0.933,0.002,0.000,-0.006,0.000,0.000,0.175,0.124,2,2,0,3,7,255,1296,300,202,1296
stim,259,259,0,201271.369,-0.921,-0.130,-0.023,0.367,3283,548,1421,3561,357,1613,471,1177,42,0.000,4,1,5.516,0.002,-3.200,1.160,4.340,-0.249,-0.256,0.933,-0.002,0.000,-0.006,0.000,0.000,0.175,0.124,2,2,0,3,7,255,1296,300,207,1296
stim,259,259,0,201276.369,-0.921,-0.130,-0.023,0.368,3281,541,1423,3565,359,1609,475,1179,42,0.000,4,1,5.691,0.012,-3.340,1.160,4.460,-0.250,-0.256,0.933,-0.012,0.000,-0.008,0.000,0.000,0.175,0.124,2,2,0,3,7,255,1296,300,212,1296
stim,259,259,0,201281.369,-0.921,-0.130,-0.023,0.368,3291,544,1423,3559,345,1605,484,1187,42,0.000,4,1,5.763,0.018,-3.460,1.160,4.460,-0.250,-0.254,0.934,-0.018,0.000,-0.008,0.000,0.000,0.175,0.124,2,2,0,3,7,255,1296,300,217,1296
stim,259,259,0,201286.369,-0.920,-0.130,-0.023,0.368,3279,540,1419,3559,320,1603,480,1224,42,0.000,4,1,5.737,0.022,-3.280,1.240,4.540,-0.248,-0.255,0.935,-0.018,0.012,-0.006,0.000,0.000,0.175,0.124,2,2,0,3,7,255,1296,300,222,1296
stim,259,259,0,201291.369,-0.920,-0.130,-0.023,0.368,3279,545,1427,3565,315,1593,486,1180,42,0.000,4,1,5.605,0.013,-3.160,1.240,4.460,-0.248,-0.256,0.935,-0.004,0.012,0.000,0.000,0.000,0.175,0.124,2,2,0,3,7,255,1296,300,227,1296
stim,259,259,0,201296.369,-0.920,-0.130,-0.023,0.368,3275,543,1423,3565,315,1597,477,1142,42,0.000,4,1,5.585,0.007,-3.100,1.300,4.460,-0.248,-0.257,0.933,0.004,0.006,0.000,0.000,0.000,0.175,0.124,2,2,0,3,7,255,1296,300,232,1296
stim,259,259,0,201301.369,-0.920,-0.129,-0.023,0.368,3279,557,1436,3573,333,1607,476,1159,42,0.000,4,1,5.669,0.007,-3.160,1.240,4.540,-0.249,-0.257,0.933,0.004,-0.006,-0.008,0.000,0.000,0.175,0.124,2,2,0,3,7,255,1296,300,237,1296
stim,287,287,0,201306.369,-0.920,-0.129,-0.023,0.369,3289,557,1443,3559,332,1609,472,1152,42,0.000,4,1,5.733,0.010,-3.100,1.240,4.660,-0.249,-0.257,0.933,0.006,-0.008,-0.008,0.000,0.000,0.175,0.124,2,2,0,3,7,255,1296,300,242,1296
stim,288,288,0,201311.369,-0.920,-0.129,-0.023,0.369,3276,555,1442,3563,331,1607,481,1163,42,0.000,4,1,5.795,0.010,-3.100,1.300,4.720,-0.248,-0.256,0.934,0.006,-0.008,-0.006,0.000,0.000,0.175,0.124,2,2,0,3,7,255,1296,300,247,1296
stim,288,288,0,201316.369,-0.920,-0.129,-0.023,0.369,3285,551,1444,3559,327,1605,478,1151,42,0.000,4,1,5.777,0.011,-3.040,1.360,4.720,-0.249,-0.258,0.934,0.008,-0.008,-0.004,0.000,0.000,0.175,0.124,2,2,0,3,7,255,1296,300,252,1296
stim,288,288,0,201321.369,-0.920,-0.129,-0.023,0.369,3279,551,1443,3571,333,1608,476,1143,42,0.000,4,1,5.745,0.010,-2.980,1.360,4.720,-0.249,-0.256,0.934,0.008,-0.006,0.004,0.000,0.000,0.175,0.124,2,2,0,3,7,255,1296,300,257,1296
stim,288,288,0,201326.369,-0.920,-0.129,-0.023,0.369,3283,553,1437,3571,335,1594,479,1155,42,0.000,4,1,5.798,0.007,-2.860,1.420,4.840,-0.249,-0.256,0.936,0.004,-0.006,0.008,0.000,0.000,0.175,0.124,2,2,0,3,7,255,1296,300,262,1296
stim,288,288,0,201331.369,-0.920,-0.129,-0.023,0.370,3292,549,1438,3562,328,1611,479,1059,42,0.000,4,1,5.856,0.003,-2.800,1.360,4.960,-0.250,-0.255,0.935,0.002,-0.002,0.006,0.000,0.000,0.175,0.124,2,2,0,3,7,255,1296,300,267,1296
stim,288,288,0,201336.369,-0.920,-0.129,-0.023,0.370,3283,544,1437,3579,327,1615,477,1041,42,0.000,4,1,5.841,0.004,-2.820,1.400,4.920,-0.250,-0.256,0.934,0.004,-0.002,0.006,0.000,0.000,0.175,0.124,2,2,0,3,7,255,1296,300,272,1296
stim,288,288,0,201341.369,-0.920,-0.129,-0.023,0.370,3293,552,1443,3564,323,1613,478,1031,42,0.000,4,1,5.806,0.004,-2.880,1.340,4.860,-0.250,-0.254,0.934,-0.004,-0.002,0.000,0.000,0.000,0.175,0.124,2,2,0,3,7,255,1296,300,277,1296
stim,288,288,0,201346.369,-0.920,-0.129,-0.023,0.370,3288,549,1439,3571,329,1611,478,1016,42,0.000,4,1,5.767,0.008,-3.000,1.340,4.740,-0.250,-0.253,0.933,-0.008,0.000,-0.004,0.000,0.000,0.175,0.124,2,2,0,3,7,255,1296,300,282,1296
stim,288,288,0,201351.369,-0.920,-0.129,-0.023,0.370,3284,546,1433,3564,312,1610,480,1021,42,0.000,4,1,5.813,0.017,-3.060,1.400,4.740,-0.250,-0.253,0.935,-0.016,0.006,-0.004,0.000,0.000,0.175,0.124,2,2,0,3,7,255,1296,300,287,1296
stim,288,288,0,201356.369,-0.920,-0.129,-0.023,0.371,3278,548,1436,3571,313,1608,483,1043,42,0.000,4,1,5.786,0.019,-2.940,1.340,4.800,-0.251,-0.252,0.934,-0.018,0.006,-0.002,0.000,0.000,0.175,0.124,2,2,0,3,7,255,1296,300,292,1296
stim,288,288,0,201361.369,-0.919,-0.129,-0.023,0.371,3291,544,1439,3572,313,1608,477,1077,42,0.000,4,1,5.897,0.024,-3.060,1.340,4.860,-0.251,-0.252,0.933,-0.024,0.002,-0.002,0.000,0.000,0.175,0.124,2,2,0,3,7,255,1296,300,297,1296
stim,320,320,0,201366.369,-0.919,-0.129,-0.023,0.371,3283,550,1436,3575,313,1609,480,1019,42,0.000,4,1,5.915,0.024,-3.120,1.280,4.860,-0.251,-0.254,0.932,-0.024,-0.002,-0.010,0.000,0.000,0.175,0.124,2,2,0,3,7,255,1296,300,302,1296
stim,321,321,0,201371.369,-0.919,-0.128,-0.023,0.371,3294,559,1437,3576,309,1597,485,1046,42,0.000,4,1,5.942,0.021,-3.260,1.280,4.800,-0.251,-0.254,0.934,-0.014,-0.016,-0.010,0.000,0.000,0.175,0.124,2,2,0,3,7,255,1296,300,307,1296
stim,321,321,0,201376.369,-0.919,-0.128,-0.023,0.371,3289,548,1435,3563,309,1594,481,1052,42,0.000,4,1,5.974,0.020,-3.380,1.340,4.740,-0.250,-0.255,0.934,-0.012,-0.016,0.004,0.000,0.000,0.175,0.124,2,2,0,3,7,255,1296,300,312,1296
stim,321,321,0,201381.369,-0.919,-0.128,-0.023,0.372,3276,549,1433,3579,300,1604,483,1054,42,0.000,4,1,5.961,0.018,-3.380,1.280,4.740,-0.250,-0.252,0.933,-0.012,-0.014,0.004,0.000,0.000,0.175,0.124,2,2,0,3,7,255,1296,300,317,1296
stim,367,367,0,201386.369,-0.919,-0.128,-0.023,0.372,3284,550,1431,3575,301,1583,479,1053,42,0.000,4,1,6.113,0.016,-3.480,1.280,4.860,-0.250,-0.250,0.932,-0.016,-0.002,-0.016,0.000,0.000,0.175,0.124,2,2,0,3,7,255,1296,300,322,1296
stim,367,367,0,201391.369,-0.919,-0.128,-0.023,0.372,3283,554,1433,3564,301,1605,478,1059,42,0.000,4,1,6.277,0.023,-3.600,1.280,4.980,-0.248,-0.250,0.933,-0.016,0.016,-0.028,0.000,0.000,0.175,0.124,2,2,0,3,7,255,1296,300,327,1296
stim,367,367,0,201396.369,-0.919,-0.128,-0.023,0.372,3287,557,1432,3571,301,1595,477,1068,42,0.000,4,1,6.242,0.020,-3.600,1.340,4.920,-0.249,-0.254,0.935,-0.012,0.016,-0.028,0.000,0.000,0.175,0.124,2,2,0,3,7,255,1296,300,332,1296
stim,367,367,0,201401.369,-0.919,-0.128,-0.023,0.372,3280,553,1429,3579,305,1612,472,1071,42,0.000,4,1,5.998,0.013,-3.480,1.400,4.680,-0.250,-0.250,0.933,-0.012,0.006,-0.020,0.000,0.000,0.175,0.124,2,2,0,3,7,255,1296,300,337,1296
stim,368,368,0,201406.370,-0.919,-0.128,-0.023,0.373,3287,555,1433,3571,301,1612,477,1081,42,0.000,4,1,6.195,0.010,-3.600,1.340,4.860,-0.252,-0.254,0.933,-0.010,0.000,-0.002,0.000,0.000,0.175,0.124,2,2,0,3,7,255,1296,300,342,1296
stim,368,368,0,201411.369,-0.919,-0.128,-0.023,0.373,3297,557,1432,3575,299,1599,472,1135,42,0.000,4,1,6.453,0.024,-3.720,1.340,5.100,-0.251,-0.250,0.932,-0.024,-0.004,-0.020,0.000,0.000,0.175,0.124,2,2,0,3,7,255,1296,300,347,1296
stim,368,368,0,201416.369,-0.919,-0.128,-0.023,0.373,3293,554,1433,3575,300,1596,475,1135,42,0.000,4,1,6.712,0.011,-4.020,1.280,5.220,-0.250,-0.252,0.934,-0.010,-0.004,-0.002,0.000,0.000,0.175,0.124,2,2,0,3,7,255,1296,300,352,1296
stim,368,368,0,201421.369,-0.919,-0.128,-0.023,0.373,3288,556,1433,3565,301,1591,473,1135,42,0.000,4,1,6.618,0.012,-3.900,1.400,5.160,-0.250,-0.250,0.933,-0.012,0.002,-0.018,0.000,0.000,0.175,0.124,2,2,0,3,7,255,1296,300,357,1296
stim,368,368,0,201426.369,-0.919,-0.128,-0.023,0.373,3283,555,1431,3588,306,1597,480,1139,42,0.000,4,1,6.653,0.014,-3.960,1.400,5.160,-0.250,-0.250,0.934,-0.012,0.008,-0.010,0.000,0.000,0.175,0.124,2,2,0,3,7,255,1296,300,362,1296
stim,368,368,0,201431.369,-0.918,-0.128,-0.023,0.374,3291,552,1435,3563,303,1598,477,1141,42,0.000,4,1,6.653,0.014,-3.960,1.400,5.160,-0.250,-0.251,0.934,-0.012,0.008,-0.010,0.000,0.000,0.175,0.124,2,2,0,3,7,255,1296,300,367,1296
stim,375,375,0,201436.369,-0.918,-0.128,-0.023,0.374,3279,559,1431,3565,301,1599,483,1133,42,0.000,4,1,6.912,0.013,-4.080,1.480,5.380,-0.250,-0.251,0.933,-0.012,0.006,-0.010,0.000,0.000,0.175,0.124,2,2,0,3,7,255,1296,300,372,1296
stim,375,375,0,201441.369,-0.918,-0.128,-0.023,0.374,3286,591,1432,3551,301,1605,477,1137,42,0.000,4,1,7.018,0.012,-4.200,1.420,5.440,-0.251,-0.252,0.934,-0.012,0.002,-0.004,0.000,0.000,0.175,0.124,2,2,0,3,7,255,1296,300,377,1296
stim,382,382,0,201446.369,-0.918,-0.128,-0.023,0.374,3288,593,1433,3557,300,1603,473,1097,42,0.000,4,1,7.030,0.012,-4.200,1.480,5.440,-0.251,-0.251,0.935,-0.012,0.002,0.000,0.000,0.000,0.175,0.124,2,2,0,3,7,255,1296,300,382,1296
stim,382,382,0,201451.369,-0.918,-0.128,-0.023,0.374,3284,565,1427,3575,301,1594,476,1101,42,0.000,4,1,7.030,0.013,-4.200,1.480,5.440,-0.250,-0.250,0.934,-0.012,0.006,0.000,0.000,0.000,0.175,0.124,2,2,0,3,7,255,1296,300,387,1296
stim,398,398,0,201456.369,-0.918,-0.128,-0.023,0.375,3299,564,1429,3571,301,1595,476,1101,42,0.000,4,1,6.997,0.013,-4.200,1.540,5.380,-0.251,-0.250,0.934,-0.012,0.006,-0.004,0.000,0.000,0.175,0.124,2,2,0,3,7,255,1296,300,392,1296
stim,398,398,0,201461.369,-0.918,-0.128,-0.023,0.375,3301,583,1423,3577,300,1605,461,1184,42,0.000,4,1,7.113,0.009,-4.260,1.480,5.500,-0.250,-0.251,0.934,-0.008,0.004,-0.006,0.000,0.000,0.175,0.124,2,2,0,3,7,255,1296,300,397,1296
stim,398,398,0,201466.369,-0.918,-0.128,-0.023,0.375,3280,603,1419,3577,301,1593,483,1146,42,0.000,4,1,7.106,0.003,-4.380,1.540,5.380,-0.251,-0.252,0.934,-0.002,0.002,-0.004,0.000,0.000,0.175,0.124,2,2,0,3,7,255,1296,300,402,1296
stim,398,398,0,201471.369,-0.918,-0.128,-0.023,0.375,3288,567,1419,3563,302,1599,477,1125,42,0.000,4,1,6.966,0.004,-4.320,1.480,5.260,-0.252,-0.252,0.933,-0.002,-0.004,-0.006,0.000,0.000,0.175,0.124,2,2,0,3,7,255,1296,300,407,1296
stim,462,462,0,201476.369,-0.918,-0.128,-0.023,0.376,3291,562,1420,3572,297,1595,480,1144,42,0.000,4,1,7.041,0.017,-4.440,1.480,5.260,-0.255,-0.254,0.936,-0.006,-0.016,0.000,0.000,0.000,0.175,0.124,2,2,0,3,7,255,1296,300,412,1296
stim,462,462,0,201481.369,-0.918,-0.128,-0.023,0.376,3295,571,1421,3573,306,1594,483,1140,42,0.000,4,1,6.990,0.029,-4.500,1.480,5.140,-0.254,-0.255,0.938,-0.006,-0.028,0.032,0.000,0.000,0.175,0.124,2,2,0,3,7,255,1296,300,417,1296
stim,462,462,0,201486.369,-0.917,-0.128,-0.023,0.376,3285,573,1421,3579,301,1607,479,1120,42,0.000,4,1,6.862,0.032,-4.520,1.360,4.980,-0.254,-0.257,0.940,-0.004,-0.032,0.050,0.000,0.000,0.175,0.124,2,2,0,3,7,255,1296,300,422,1296
stim,462,462,0,201491.369,-0.917,-0.128,-0.023,0.376,3287,586,1421,3566,296,1607,477,1131,42,0.000,4,1,6.410,0.030,-4.400,1.480,4.420,-0.252,-0.259,0.942,0.010,-0.028,0.072,0.000,0.000,0.175,0.124,2,2,0,3,7,255,1296,300,427,1296
stim,462,462,0,201496.369,-0.917,-0.128,-0.023,0.376,3283,585,1419,3577,301,1597,480,1129,42,0.000,4,1,6.142,0.026,-4.580,1.300,3.880,-0.256,-0.252,0.938,0.010,-0.024,0.072,0.000,0.000,0.175,0.124,2,2,0,3,7,255,1296,300,432,1296
stim,462,462,0,201501.369,-0.917,-0.128,-0.023,0.377,3284,581,1416,3587,299,1606,481,1135,42,0.000,4,1,6.348,0.025,-4.720,1.240,4.060,-0.257,-0.257,0.939,-0.008,-0.024,0.070,0.000,0.000,0.175,0.124,2,2,0,3,7,255,1296,300,437,1296
stim,462,462,0,201506.369,-0.917,-0.128,-0.023,0.377,3287,594,1403,3577,299,1610,488,1139,42,0.000,4,1,6.600,0.039,-4.840,1.060,4.360,-0.256,-0.250,0.937,-0.034,-0.020,0.046,0.000,0.000,0.175,0.124,2,2,0,3,7,255,1296,300,442,1296
stim,462,462,0,201511.369,-0.917,-0.128,-0.023,0.377,3301,600,1405,3573,301,1608,480,1140,42,0.000,4,1,6.646,0.039,-4.780,1.120,4.480,-0.253,-0.259,0.938,-0.008,-0.038,0.058,0.000,0.000,0.175,0.124,2,2,0,3,7,255,1296,300,447,1296
stim,462,462,0,201516.369,-0.917,-0.128,-0.023,0.377,3291,615,1401,3561,304,1612,478,1147,42,0.000,4,1,6.223,0.044,-4.400,1.180,4.240,-0.249,-0.259,0.936,0.038,-0.022,0.030,0.000,0.000,0.175,0.124,2,2,0,3,7,255,1296,300,452,1296
stim,462,462,0,201521.369,-0.917,-0.128,-0.023,0.377,3293,629,1407,3574,301,1616,477,1133,42,0.000,4,1,5.684,0.044,-4.220,1.180,3.620,-0.250,-0.254,0.931,0.038,-0.022,0.020,0.000,0.000,0.175,0.124,2,2,0,3,7,255,1296,300,457,1296
stim,462,462,0,201526.369,-0.917,-0.128,-0.023,0.378,3290,635,1411,3562,300,1612,477,1071,42,0.000,4,1,5.825,0.033,-4.340,0.980,3.760,-0.253,-0.258,0.929,0.024,-0.022,-0.026,0.000,0.000,0.175,0.124,2,2,0,3,7,255,1296,300,462,1296
stim,462,462,0,201531.369,-0.917,-0.128,-0.023,0.378,3289,624,1417,3567,299,1619,477,1079,42,0.000,4,1,5.950,0.031,-4.160,1.060,4.120,-0.250,-0.255,0.929,0.020,-0.024,-0.030,0.000,0.000,0.175,0.124,2,2,0,3,7,255,1296,300,467,1296
stim,463,463,0,201536.369,-0.917,-0.128,-0.023,0.378,3293,635,1421,3587,301,1619,479,1081,42,0.000,4,1,6.059,0.031,-4.080,0.940,4.380,-0.250,-0.249,0.929,0.020,-0.024,-0.042,0.000,0.000,0.175,0.124,2,2,0,3,7,255,1296,300,472,1296
stim,463,463,0,201541.369,-0.917,-0.128,-0.023,0.378,3283,629,1425,3573,300,1619,483,1083,42,0.000,4,1,6.211,0.020,-4.020,0.940,4.640,-0.249,-0.250,0.932,0.004,0.020,-0.042,0.000,0.000,0.175,0.124,2,2,0,3,7,255,1296,300,477,1296
stim,494,494,0,201546.369,-0.917,-0.128,-0.023,0.378,3287,635,1425,3562,302,1621,477,1087,42,0.000,4,1,6.256,0.030,-4.020,0.940,4.700,-0.249,-0.248,0.932,-0.010,0.028,-0.038,0.000,0.000,0.175,0.124,2,2,0,3,7,255,1296,300,482,1296
stim,494,494,0,201551.369,-0.916,-0.128,-0.023,0.378,3299,645,1431,3577,299,1627,485,1097,42,0.000,4,1,6.015,0.034,-3.840,1.000,4.520,-0.250,-0.250,0.936,-0.002,0.034,-0.036,0.000,0.000,0.175,0.124,2,2,0,3,7,255,1296,300,487,1296
stim,494,494,0,201556.369,-0.916,-0.128,-0.023,0.379,3284,635,1423,3560,299,1621,485,1103,42,0.000,4,1,6.052,0.034,-3.720,1.120,4.640,-0.251,-0.253,0.938,-0.002,0.034,0.006,0.000,0.000,0.175,0.124,2,2,0,3,7,255,1296,300,492,1296
stim,494,494,0,201561.369,-0.916,-0.128,-0.023,0.379,3289,639,1424,3575,299,1623,479,1109,42,0.000,4,1,5.978,0.006,-3.520,1.120,4.700,-0.252,-0.252,0.935,-0.002,0.006,0.006,0.000,0.000,0.175,0.124,2,2,0,3,7,255,1296,300,497,1296
stim,527,527,0,201566.369,-0.916,-0.128,-0.023,0.379,3284,629,1431,3567,299,1625,483,1108,42,0.000,4,1,5.921,0.013,-3.520,1.300,4.580,-0.250,-0.255,0.936,0.012,-0.004,0.016,0.000,0.000,0.175,0.124,2,2,0,3,7,255,1296,300,502,1296
stim,527,527,0,201571.369,-0.916,-0.128,-0.023,0.379,3293,624,1427,3573,301,1624,480,1134,42,0.000,4,1,5.972,0.009,-3.720,1.180,4.520,-0.253,-0.249,0.934,-0.008,-0.004,0.004,0.000,0.000,0.175,0.124,2,2,0,3,7,255,1296,300,507,1296
stim,527,527,0,201576.369,-0.916,-0.128,-0.023,0.379,3291,631,1430,3571,299,1626,486,1112,42,0.000,4,1,6.084,0.035,-3.520,1.180,4.820,-0.255,-0.250,0.934,-0.034,-0.008,-0.004,0.000,0.000,0.175,0.124,2,2,0,3,7,255,1296,300,512,1296
stim,527,527,0,201581.369,-0.916,-0.127,-0.023,0.380,3292,628,1431,3568,297,1626,483,1080,42,0.000,4,1,6.573,0.035,-3.340,1.420,5.480,-0.252,-0.249,0.933,-0.034,0.006,-0.010,0.000,0.000,0.175,0.124,2,2,0,3,7,255,1296,300,517,1296
stim,527,527,0,201586.369,-0.916,-0.127,-0.023,0.380,3291,587,1431,3577,304,1625,479,1080,42,0.000,4,1,6.470,0.023,-3.040,1.540,5.500,-0.248,-0.251,0.931,-0.022,0.008,-0.016,0.000,0.000,0.175,0.124,2,2,0,3,7,255,1296,300,522,1296
stim,527,527,0,201591.369,-0.916,-0.127,-0.023,0.380,3299,593,1430,3569,297,1615,485,1099,42,0.000,4,1,6.046,0.034,-3.160,1.600,4.900,-0.244,-0.252,0.928,0.030,0.016,-0.040,0.000,0.000,0.175,0.124,2,2,0,3,7,255,1296,300,527,1296
stim,560,560,0,201596.369,-0.916,-0.127,-0.023,0.380,3299,594,1428,3576,303,1620,486,1097,42,0.000,4,1,5.766,0.060,-3.420,1.480,4.400,-0.250,-0.258,0.932,0.058,0.016,-0.040,0.000,0.000,0.175,0.124,2,2,0,3,7,255,1296,300,532,1296
stim,560,560,0,201601.369,-0.916,-0.127,-0.023,0.380,3288,598,1432,3572,299,1619,485,1101,42,0.000,4,1,5.859,0.068,-3.340,1.420,4.600,-0.255,-0.252,0.931,0.058,-0.036,-0.024,0.000,0.000,0.175,0.124,2,2,0,3,7,255,1296,300,537,1296
stim,560,560,0,201606.369,-0.916,-0.127,-0.023,0.381,3300,615,1447,3587,304,1613,485,1102,42,0.000,4,1,6.404,0.038,-3.340,1.480,5.260,-0.255,-0.253,0.935,-0.012,-0.036,-0.006,0.000,0.000,0.175,0.124,2,2,0,3,7,255,1296,300,542,1296
stim,560,560,0,201611.369,-0.916,-0.127,-0.023,0.381,3301,603,1454,3588,304,1618,489,1107,42,0.000,4,1,6.708,0.035,-3.220,1.540,5.680,-0.251,-0.247,0.934,-0.018,-0.030,-0.018,0.000,0.000,0.175,0.124,2,2,0,3,7,255,1296,300,547,1296
stim,560,560,0,201616.369,-0.915,-0.127,-0.023,0.381,3301,583,1447,3567,302,1613,487,1117,42,0.000,4,1,6.607,0.020,-3.160,1.660,5.560,-0.249,-0.251,0.935,-0.012,0.016,-0.004,0.000,0.000,0.175,0.124,2,2,0,3,7,255,1296,300,552,1296
stim,560,560,0,201621.369,-0.915,-0.127,-0.023,0.381,3298,589,1449,3579,299,1616,489,1121,42,0.000,4,1,6.377,0.021,-3.100,1.660,5.320,-0.250,-0.250,0.933,0.010,0.018,-0.018,0.000,0.000,0.175,0.124,2,2,0,3,7,255,1296,300,557,1296
stim,574,574,0,201626.369,-0.915,-0.127,-0.022,0.382,3292,585,1449,3567,301,1619,489,1139,42,0.000,4,1,6.585,0.019,-3.540,1.780,5.260,-0.251,-0.249,0.931,0.010,0.016,-0.024,0.000,0.000,0.175,0.124,2,2,0,3,7,255,1296,300,562,1296
stim,574,574,0,201631.369,-0.915,-0.127,-0.022,0.382,3291,589,1447,3577,299,1619,489,1152,42,0.000,4,1,6.765,0.021,-3.780,1.780,5.320,-0.253,-0.247,0.934,-0.010,0.018,-0.024,0.000,0.000,0.175,0.124,2,2,0,3,7,255,1296,300,567,1296
stim,574,574,0,201636.369,-0.915,-0.127,-0.022,0.382,3297,591,1449,3565,309,1617,489,1142,42,0.000,4,1,7.052,0.037,-3.860,1.980,5.560,-0.254,-0.247,0.938,-0.032,0.018,-0.008,0.000,0.000,0.175,0.124,2,2,0,3,7,255,1296,300,572,1296
stim,574,574,0,201641.369,-0.915,-0.127,-0.022,0.382,3304,595,1455,3587,307,1624,493,1173,42,0.000,4,1,7.010,0.037,-3.600,1.980,5.680,-0.252,-0.250,0.938,-0.032,0.018,0.028,0.000,0.000,0.175,0.124,2,2,0,3,7,255,1296,300,577,1296
stim,575,575,0,201646.370,-0.915,-0.127,-0.022,0.382,3287,591,1451,3568,304,1615,492,1191,42,0.000,4,1,7.067,0.016,-3.800,1.980,5.620,-0.251,-0.250,0.931,0.004,0.016,0.028,0.000,0.000,0.175,0.124,2,2,0,3,7,255,1296,300,582,1296
stim,575,575,0,201651.369,-0.915,-0.127,-0.022,0.383,3290,595,1452,3566,304,1622,493,1221,42,0.000,4,1,7.181,0.004,-4.220,2.040,5.440,-0.251,-0.250,0.931,0.004,-0.002,-0.030,0.000,0.000,0.175,0.124,2,2,0,3,7,255,1296,300,587,1296
stim,607,607,0,201656.369,-0.915,-0.127,-0.022,0.383,3291,591,1449,3548,309,1625,491,1189,42,0.000,4,1,7.300,0.004,-4.520,1.980,5.380,-0.252,-0.247,0.932,0.004,-0.002,-0.034,0.000,0.000,0.175,0.124,2,2,0,3,7,255,1296,300,592,1296
stim,607,607,0,201661.369,-0.915,-0.127,-0.022,0.383,3301,594,1440,3559,306,1621,493,1192,42,0.000,4,1,7.467,0.024,-4.520,2.100,5.560,-0.255,-0.244,0.934,-0.016,0.018,-0.030,0.000,0.000,0.175,0.124,2,2,0,3,7,255,1296,300,597,1296
stim,609,609,0,201666.369,-0.915,-0.127,-0.022,0.383,3298,618,1453,3558,306,1617,491,1179,42,0.000,4,1,7.671,0.042,-4.280,2.340,5.920,-0.253,-0.244,0.934,-0.036,0.022,-0.016,0.000,0.000,0.175,0.124,2,2,0,3,7,255,1296,300,602,1296
stim,609,609,0,201671.369,-0.915,-0.127,-0.022,0.384,3292,621,1451,3577,308,1617,491,1177,42,0.000,4,1,7.791,0.042,-4.160,2.280,6.180,-0.250,-0.248,0.932,-0.036,0.022,-0.016,0.000,0.000,0.175,0.124,2,2,0,3,7,255,1296,300,607,1296
stim,609,609,0,201676.369,-0.914,-0.127,-0.022,0.384,3305,619,1447,3565,302,1619,489,1179,42,0.000,4,1,7.803,0.020,-4.400,2.400,5.980,-0.251,-0.247,0.932,0.002,0.020,-0.034,0.000,0.000,0.175,0.124,2,2,0,3,7,255,1296,300,612,1296
stim,610,610,0,201681.369,-0.914,-0.127,-0.022,0.384,3304,622,1449,3591,303,1623,489,1181,42,0.000,4,1,7.843,0.021,-4.640,2.520,5.800,-0.252,-0.249,0.934,0.006,0.020,-0.034,0.000,0.000,0.175,0.124,2,2,0,3,7,255,1296,300,617,1296
stim,643,643,0,201686.369,-0.914,-0.127,-0.022,0.384,3305,620,1448,3572,307,1619,493,1191,42,0.000,4,1,7.660,0.014,-4.520,2.400,5.700,-0.254,-0.250,0.938,0.002,0.014,-0.006,0.000,0.000,0.175,0.124,2,2,0,3,7,255,1296,300,622,1296
stim,643,643,0,201691.369,-0.914,-0.127,-0.022,0.385,3293,635,1439,3565,309,1615,488,1196,42,0.000,4,1,7.700,0.008,-4.400,2.460,5.820,-0.255,-0.250,0.937,0.000,0.008,0.032,0.000,0.000,0.175,0.124,2,2,0,3,7,255,1296,300,627,1296
stim,643,643,0,201696.369,-0.914,-0.127,-0.022,0.385,3295,633,1443,3575,309,1613,489,1178,42,0.000,4,1,7.560,0.010,-4.280,2.520,5.700,-0.255,-0.251,0.937,0.000,-0.010,0.032,0.000,0.000,0.175,0.124,2,2,0,3,7,255,1296,300,632,1296
stim,643,643,0,201701.369,-0.914,-0.127,-0.022,0.385,3289,635,1443,3589,307,1610,491,1215,42,0.000,4,1,7.680,0.014,-4.340,2.640,5.760,-0.256,-0.251,0.937,-0.002,-0.014,0.032,0.000,0.000,0.175,0.124,2,2,0,3,7,255,1296,300,637,1296
stim,643,643,0,201706.369,-0.914,-0.127,-0.022,0.385,3300,638,1445,3578,297,1598,491,1182,42,0.000,4,1,7.699,0.020,-4.520,2.520,5.700,-0.256,-0.252,0.938,0.008,-0.018,0.032,0.000,0.000,0.175,0.124,2,2,0,3,7,255,1296,300,642,1296
stim,643,643,0,201711.369,-0.914,-0.127,-0.022,0.385,3293,648,1449,3579,309,1595,487,1175,42,0.000,4,1,7.734,0.020,-4.960,2.460,5.400,-0.255,-0.253,0.939,0.008,-0.018,0.044,0.000,0.000,0.175,0.124,2,2,0,3,7,255,1296,300,647,1296
stim,671,671,0,201716.369,-0.914,-0.127,-0.022,0.386,3307,649,1448,3575,302,1591,487,1180,42,0.000,4,1,7.506,0.016,-5.500,2.340,4.540,-0.258,-0.252,0.944,0.008,-0.014,0.062,0.000,0.000,0.175,0.124,2,2,0,3,7,255,1296,300,652,1296
stim,671,671,0,201721.369,-0.914,-0.127,-0.022,0.386,3295,651,1445,3567,300,1594,487,1169,42,0.000,4,1,7.280,0.015,-6.000,2.080,3.560,-0.265,-0.254,0.954,-0.004,-0.014,0.110,0.000,0.000,0.175,0.124,2,2,0,3,7,255,1296,300,657,1296
stim,672,672,0,201726.369,-0.914,-0.127,-0.022,0.386,3298,667,1439,3568,301,1587,486,1179,42,0.000,4,1,7.192,0.037,-6.480,1.840,2.520,-0.272,-0.247,0.964,-0.036,-0.008,0.216,0.000,0.000,0.175,0.124,2,2,0,3,7,255,1296,300,662,1296
stim,672,672,0,201731.369,-0.913,-0.127,-0.022,0.386,3307,595,1427,3580,301,1589,486,1178,42,0.000,4,1,6.754,0.046,-6.180,1.660,2.160,-0.271,-0.262,0.977,-0.036,-0.028,0.310,0.000,0.000,0.175,0.124,2,2,0,3,7,255,1296,300,667,1296
stim,672,672,0,201736.369,-0.913,-0.127,-0.022,0.386,3299,629,1421,3563,297,1577,487,1162,42,0.000,4,1,4.901,0.040,-3.740,1.720,2.660,-0.265,-0.273,0.959,-0.024,-0.032,0.310,0.000,0.000,0.175,0.124,2,2,0,3,7,255,1296,300,672,1296
stim,672,672,0,201741.369,-0.913,-0.127,-0.022,0.386,3299,604,1419,3564,297,1587,486,1141,42,0.000,4,1,4.814,0.134,-3.060,2.080,3.080,-0.261,-0.263,0.917,0.052,-0.124,0.306,0.000,0.000,0.175,0.124,2,2,0,3,7,255,1296,300,677,1296
stim,707,707,0,201746.369,-0.913,-0.127,-0.021,0.386,3303,573,1426,3563,295,1578,483,1129,42,0.000,4,1,7.246,0.134,-5.800,2.400,3.620,-0.251,-0.251,0.901,0.052,-0.124,-0.114,0.000,0.000,0.175,0.124,2,2,0,3,7,255,1296,300,682,1296
stim,707,707,0,201751.369,-0.913,-0.128,-0.022,0.387,3287,571,1417,3561,298,1580,477,1125,42,0.000,4,1,8.633,0.106,-7.520,1.840,3.820,-0.241,-0.251,0.926,0.052,-0.092,-0.114,0.000,0.000,0.175,0.124,2,2,0,3,7,255,1296,300,687,1296
stim,707,707,0,201756.369,-0.913,-0.128,-0.022,0.387,3299,558,1425,3553,294,1568,477,1119,42,0.000,4,1,6.500,0.124,-6.000,1.600,1.920,-0.240,-0.267,0.952,0.108,0.060,-0.114,0.000,0.000,0.175,0.124,2,2,0,3,7,255,1296,300,692,1296
stim,707,707,0,201761.369,-0.913,-0.128,-0.022,0.387,3293,618,1430,3557,287,1528,472,1135,42,0.000,4,1,3.695,0.203,-3.120,1.960,-0.280,-0.254,-0.279,0.958,0.194,0.060,0.162,0.000,0.000,0.175,0.124,2,2,0,3,7,255,1296,300,697,1296
stim,707,707,0,201766.369,-0.913,-0.128,-0.022,0.387,3287,613,1417,3555,296,1554,473,1111,42,0.000,4,1,2.204,0.213,-1.180,1.840,-0.280,-0.269,-0.282,0.940,0.194,-0.088,0.162,0.000,0.000,0.175,0.124,2,2,0,3,7,255,1296,300,702,1296
stim,707,707,0,201771.369,-0.913,-0.128,-0.022,0.387,3291,567,1415,3563,295,1551,474,1100,42,0.000,4,1,2.727,0.277,-1.360,1.600,1.740,-0.273,-0.277,0.929,0.106,-0.256,0.162,0.000,0.000,0.175,0.124,2,2,0,3,7,255,1296,300,707,1296
stim,734,734,0,201776.369,-0.913,-0.128,-0.022,0.387,3288,534,1415,3559,295,1530,479,1091,42,0.000,4,1,4.176,0.268,-2.080,1.300,3.380,-0.261,-0.270,0.932,0.080,-0.256,0.054,0.000,0.000,0.175,0.124,2,2,0,3,7,255,1296,300,712,1296
stim,734,734,0,201781.369,-0.913,-0.128,-0.022,0.387,3284,519,1407,3569,295,1527,457,1082,42,0.000,4,1,3.734,0.166,-1.720,1.060,3.140,-0.247,-0.268,0.944,0.080,-0.146,0.054,0.000,0.000,0.175,0.124,2,2,0,3,7,255,1296,300,717,1296
stim,734,734,0,201786.370,-0.913,-0.128,-0.022,0.387,3287,503,1392,3573,292,1509,451,1095,42,0.000,4,1,1.801,0.152,-0.120,1.240,1.300,-0.243,-0.263,0.947,0.152,-0.004,0.100,0.000,0.000,0.175,0.124,2,2,0,3,7,255,1296,300,722,1296
stim,734,734,0,201791.369,-0.913,-0.128,-0.022,0.387,3285,496,1398,3558,293,1461,468,1133,42,0.000,4,1,1.933,0.152,1.480,1.240,-0.100,-0.251,-0.262,0.943,0.152,-0.004,0.100,0.000,0.000,0.175,0.124,2,2,0,3,7,255,1296,300,727,1296
stim,734,734,0,201796.369,-0.913,-0.127,-0.022,0.387,3289,538,1397,3575,296,1485,471,989,42,0.000,4,1,2.488,0.094,2.260,1.040,-0.040,-0.261,-0.259,0.936,0.094,-0.004,0.086,0.000,0.000,0.175,0.124,2,2,0,3,7,255,1296,300,732,1296
stim,734,734,0,201801.370,-0.913,-0.127,-0.022,0.387,3289,510,1396,3563,295,1486,463,990,42,0.000,4,1,2.609,0.061,2.260,0.860,0.980,-0.263,-0.253,0.933,0.008,-0.060,0.036,0.000,0.000,0.175,0.124,2,2,0,3,7,255,1296,300,737,1296
stim,766,766,0,201806.369,-0.913,-0.127,-0.022,0.387,3279,455,1387,3560,296,1485,469,1023,42,0.000,4,1,3.159,0.073,2.260,0.740,2.080,-0.258,-0.248,0.935,-0.042,-0.060,-0.002,0.000,0.000,0.175,0.124,2,2,0,3,7,255,1296,300,742,1296
stim,766,766,0,201811.369,-0.913,-0.127,-0.022,0.387,3281,400,1367,3576,296,1493,467,932,42,0.000,4,1,3.727,0.043,2.820,0.680,2.340,-0.251,-0.245,0.938,-0.042,0.008,-0.002,0.000,0.000,0.175,0.124,2,2,0,3,7,255,1296,300,747,1296
stim,766,766,0,201816.369,-0.913,-0.126,-0.022,0.387,3283,423,1363,3562,293,1499,459,887,42,0.000,4,1,4.023,0.087,3.480,0.680,1.900,-0.250,-0.239,0.933,-0.042,0.076,-0.004,0.000,0.000,0.175,0.124,2,2,0,3,7,255,1296,300,752,1296
stim,766,766,0,201821.369,-0.913,-0.126,-0.022,0.387,3275,407,1364,3563,283,1480,459,869,42,0.000,4,1,4.255,0.091,3.920,0.740,1.480,-0.252,-0.237,0.930,-0.046,0.078,-0.064,0.000,0.000,0.175,0.124,2,2,0,3,7,255,1296,300,757,1296
stim,766,766,0,201826.369,-0.913,-0.125,-0.021,0.387,3273,429,1370,3559,283,1459,463,881,42,0.000,4,1,4.006,0.101,3.660,0.680,1.480,-0.255,-0.236,0.929,-0.064,0.078,-0.094,0.000,0.000,0.175,0.124,2,2,0,3,7,255,1296,300,762,1296
stim,766,766,0,201831.369,-0.913,-0.125,-0.021,0.387,3283,393,1363,3577,283,1452,460,861,42,0.000,4,1,3.746,0.094,3.300,0.620,1.660,-0.256,-0.238,0.933,-0.078,0.052,-0.094,0.000,0.000,0.175,0.124,2,2,0,3,7,255,1296,300,767,1296
stim,799,799,0,201836.369,-0.913,-0.125,-0.021,0.387,3263,384,1362,3565,286,1443,461,877,42,0.000,4,1,3.963,0.092,3.340,0.620,2.040,-0.254,-0.240,0.938,-0.078,0.048,-0.048,0.000,0.000,0.175,0.124,2,2,0,3,7,255,1296,300,772,1296
stim,799,799,0,201841.369,-0.913,-0.124,-0.021,0.387,3272,357,1367,3560,288,1437,455,872,42,0.000,4,1,4.165,0.065,3.400,0.560,2.340,-0.254,-0.239,0.939,-0.044,0.048,-0.006,0.000,0.000,0.175,0.124,2,2,0,3,7,255,1296,300,777,1296
stim,799,799,0,201846.369,-0.913,-0.124,-0.021,0.387,3271,389,1363,3570,287,1448,457,865,42,0.000,4,1,4.309,0.068,3.400,0.500,2.600,-0.255,-0.234,0.935,-0.044,0.052,-0.006,0.000,0.000,0.175,0.124,2,2,0,3,7,255,1296,300,782,1296
stim,799,799,0,201851.369,-0.913,-0.124,-0.021,0.388,3283,379,1360,3573,288,1440,457,4095,42,0.000,4,1,4.110,0.103,3.040,0.500,2.720,-0.255,-0.232,0.933,-0.084,0.060,-0.042,0.000,0.000,0.175,0.124,2,2,0,3,7,255,1296,300,787,1296
stim,799,799,0,201856.369,-0.913,-0.123,-0.021,0.388,3285,371,1352,3571,287,1431,456,4095,42,0.000,4,1,3.594,0.110,2.500,0.560,2.520,-0.255,-0.226,0.933,-0.092,0.060,-0.064,0.000,0.000,0.175,0.124,2,2,0,3,7,255,1296,300,792,1296
stim,799,799,0,201861.369,-0.913,-0.123,-0.021,0.388,3269,378,1352,3561,286,1415,447,908,42,0.000,4,1,3.126,0.156,1.940,0.500,2.400,-0.253,-0.223,0.931,-0.124,0.094,-0.078,0.000,0.000,0.175,0.124,2,2,0,3,7,255,1296,300,797,1296
stim,846,846,0,201866.369,-0.913,-0.122,-0.021,0.388,3258,395,1340,3561,285,1422,448,891,42,0.000,4,1,2.733,0.171,1.400,0.560,2.280,-0.253,-0.221,0.932,-0.128,0.114,-0.102,0.000,0.000,0.175,0.124,2,2,0,3,7,255,1296,300,802,1296
stim,846,846,0,201871.369,-0.913,-0.122,-0.021,0.388,3259,405,1333,3571,279,1416,459,892,42,0.000,4,1,2.415,0.171,0.840,0.680,2.160,-0.252,-0.223,0.932,-0.128,0.114,-0.102,0.000,0.000,0.175,0.124,2,2,0,3,7,255,1296,300,807,1296
stim,846,846,0,201876.370,-0.913,-0.122,-0.021,0.388,3260,377,1323,3559,266,1429,459,881,42,0.000,4,1,1.945,0.151,0.540,0.680,1.740,-0.252,-0.228,0.936,-0.110,0.104,-0.096,0.000,0.000,0.175,0.124,2,2,0,3,7,255,1296,300,812,1296
stim,846,846,0,201881.370,-0.913,-0.122,-0.021,0.388,3256,366,1307,3559,275,1425,442,887,42,0.000,4,1,1.657,0.112,0.180,0.800,1.440,-0.254,-0.229,0.934,-0.074,0.084,-0.058,0.000,0.000,0.175,0.124,2,2,0,3,7,255,1296,300,817,1296
stim,878,878,0,201886.369,-0.913,-0.121,-0.021,0.388,3255,336,1279,3552,267,1393,459,875,42,0.000,4,1,1.465,0.088,-0.260,0.800,1.200,-0.255,-0.229,0.934,-0.074,0.048,-0.056,0.000,0.000,0.175,0.124,2,2,0,3,7,255,1296,300,822,1296
stim,879,879,0,201891.369,-0.913,-0.121,-0.021,0.388,3255,325,1277,3543,261,1369,460,903,42,0.000,4,1,1.666,0.089,-0.800,0.740,1.260,-0.257,-0.229,0.934,-0.080,0.040,-0.056,0.000,0.000,0.175,0.124,2,2,0,3,7,255,1296,300,827,1296
stim,879,879,0,201896.369,-0.914,-0.121,-0.021,0.388,3243,343,1269,3547,256,1331,458,914,42,0.000,4,1,2.038,0.089,-1.420,0.740,1.260,-0.255,-0.229,0.935,-0.080,0.040,-0.056,0.000,0.000,0.175,0.124,2,2,0,3,7,255,1296,300,832,1296
stim,879,879,0,201901.369,-0.913,-0.121,-0.021,0.388,3246,301,1265,3555,254,1337,448,951,42,0.000,4,1,2.454,0.078,-1.960,0.860,1.200,-0.255,-0.234,0.937,-0.074,0.026,-0.048,0.000,0.000,0.175,0.124,2,2,0,3,7,255,1296,300,837,1296
stim,879,879,0,201906.370,-0.914,-0.121,-0.021,0.388,3247,319,1235,3563,251,1320,459,4095,42,0.000,4,1,2.623,0.053,-2.280,0.800,1.020,-0.256,-0.232,0.938,-0.050,0.018,-0.016,0.000,0.000,0.175,0.124,2,2,0,3,7,255,1296,300,842,1296
stim,879,879,0,201911.369,-0.913,-0.121,-0.021,0.388,3255,283,1235,3563,250,1334,455,4095,42,0.000,4,1,3.144,0.034,-2.880,0.740,1.020,-0.256,-0.236,0.940,-0.032,0.010,-0.008,0.000,0.000,0.175,0.124,2,2,0,3,7,255,1296,300,847,1296
stim,879,879,0,201916.369,-0.913,-0.121,-0.021,0.388,3255,247,1234,3550,249,1322,455,4095,42,0.000,4,1,3.660,0.026,-3.440,0.800,0.960,-0.256,-0.242,0.944,-0.026,0.000,0.018,0.000,0.000,0.175,0.124,2,2,0,3,7,255,1296,300,852,1296
stim,879,879,0,201921.369,-0.913,-0.121,-0.021,0.388,3252,213,1204,3550,243,1272,445,4095,42,0.000,4,1,3.708,0.014,-3.560,0.800,0.660,-0.253,-0.244,0.948,0.010,-0.010,0.068,0.000,0.000,0.175,0.124,2,2,0,3,7,255,1296,300,857,1296
stim,879,879,0,201926.369,-0.913,-0.121,-0.021,0.388,3243,261,1191,3548,236,1308,453,4095,42,0.000,4,1,3.908,0.046,-3.800,0.860,0.300,-0.254,-0.244,0.944,0.036,-0.028,0.072,0.000,0.000,0.175,0.124,2,2,0,3,7,255,1296,300,862,1296
stim,879,879,0,201931.369,-0.913,-0.121,-0.021,0.388,3235,245,1179,3545,275,1315,442,4095,42,0.000,4,1,3.930,0.046,-3.860,0.740,0.040,-0.255,-0.245,0.943,0.036,-0.028,0.072,0.000,0.000,0.175,0.124,2,2,0,3,7,255,1296,300,867,1296
stim,880,880,0,201936.369,-0.913,-0.121,-0.021,0.388,3225,183,1164,3559,277,1294,447,4095,42,0.000,4,1,4.123,0.043,-4.040,0.820,0.060,-0.254,-0.243,0.941,0.032,-0.028,0.062,0.000,0.000,0.175,0.124,2,2,0,3,7,255,1296,300,872,1296
stim,880,880,0,201941.369,-0.913,-0.121,-0.021,0.388,3228,201,1145,3543,260,1242,429,4095,42,0.000,4,1,4.252,0.043,-4.160,0.880,0.000,-0.251,-0.243,0.939,0.032,-0.028,0.040,0.000,0.000,0.175,0.124,2,2,0,3,7,255,1296,300,877,1296
stim,910,910,0,201946.369,-0.913,-0.121,-0.021,0.388,3223,207,1133,3543,280,1206,400,4095,42,0.000,4,1,4.162,0.043,-4.040,1.000,-0.060,-0.250,-0.244,0.940,0.040,-0.016,0.020,0.000,0.000,0.175,0.124,2,2,0,3,7,255,1296,300,882,1296
stim,910,910,0,201951.369,-0.913,-0.121,-0.021,0.388,3213,93,1065,3545,251,1199,395,4095,42,0.000,4,1,3.621,0.056,-3.480,1.000,-0.060,-0.251,-0.246,0.938,0.054,-0.016,0.014,0.000,0.000,0.175,0.124,2,2,0,3,7,255,1296,300,887,1296
stim,910,910,0,201956.369,-0.913,-0.121,-0.021,0.388,3211,62,1033,3543,249,1207,391,4095,42,0.000,4,1,4.755,0.067,0.900,4.180,2.080,-0.252,-0.277,0.935,0.058,-0.034,0.020,0.000,0.000,0.175,0.124,2,2,0,3,7,255,1296,300,892,1296
stim,910,910,0,201961.369,-0.913,-0.121,-0.021,0.388,3217,67,1003,3539,265,1148,375,4095,42,0.000,4,1,8.392,0.067,2.680,7.480,2.700,-0.291,-0.189,0.983,0.058,-0.034,0.058,0.000,0.000,0.175,0.124,2,2,0,3,7,255,1296,300,897,1296
stim,910,910,0,201966.369,-0.913,-0.120,-0.020,0.389,3204,49,999,3544,271,1123,374,4095,42,0.000,4,1,8.803,0.121,3.540,0.020,8.060,-0.252,-0.239,0.906,0.026,-0.118,0.058,0.000,0.000,0.175,0.124,2,2,0,3,7,255,1296,300,902,1296
stim,910,910,0,201971.369,-0.913,-0.120,-0.021,0.389,3215,11,999,3550,264,1101,390,4095,42,0.000,4,1,7.044,0.096,2.120,3.680,5.620,-0.229,-0.276,0.940,0.026,-0.092,0.040,0.000,0.000,0.175,0.124,2,2,0,3,7,255,1296,300,907,1296
stim,910,910,0,201976.369,-0.913,-0.120,-0.020,0.389,3207,11,991,3535,264,1031,371,4095,42,0.000,4,1,4.060,0.096,-0.440,1.180,3.860,-0.240,-0.223,0.899,0.026,-0.092,-0.302,0.000,0.000,0.175,0.124,2,2,0,3,7,255,1296,300,912,1296
stim,910,910,0,201981.369,-0.913,-0.120,-0.021,0.389,3191,7,987,3543,245,1047,365,4095,42,0.000,4,1,3.608,0.156,-1.780,2.700,1.600,-0.240,-0.245,0.952,0.150,0.042,0.040,0.000,0.000,0.175,0.124,2,2,0,3,7,255,1296,300,917,1296
stim,910,910,0,201986.369,-0.913,-0.120,-0.021,0.389,3204,21,980,3532,254,1073,365,4095,42,0.000,4,1,1.511,0.042,-0.280,1.480,0.120,-0.254,-0.229,0.940,-0.006,0.042,-0.004,0.000,0.000,0.175,0.124,2,2,0,3,7,255,1296,300,922,1296
stim,910,910,0,201991.369,-0.913,-0.120,-0.020,0.389,3190,6,980,3533,219,1079,389,4095,42,0.000,4,1,2.770,0.068,0.460,2.500,1.100,-0.258,-0.232,0.946,-0.054,0.042,0.068,0.000,0.000,0.175,0.124,2,2,0,3,7,255,1296,300,927,1296
stim,974,974,0,201996.369,-0.913,-0.119,-0.020,0.389,3196,4,971,3542,240,1056,391,4095,42,0.000,4,1,3.066,0.064,1.300,2.080,1.840,-0.262,-0.224,0.942,-0.056,0.032,0.018,0.000,0.000,0.175,0.124,2,2,0,3,7,255,1296,300,932,1296
stim,974,974,0,202001.369,-0.913,-0.119,-0.020,0.389,3194,7,957,3545,263,1047,389,4095,42,0.000,4,1,3.980,0.060,1.980,2.020,2.800,-0.259,-0.232,0.937,-0.056,0.022,0.018,0.000,0.000,0.175,0.124,2,2,0,3,7,255,1296,300,937,1296
stim,974,974,0,202006.369,-0.913,-0.119,-0.020,0.389,3187,21,953,3540,274,1093,379,4095,42,0.000,4,1,4.378,0.059,1.300,2.020,3.660,-0.250,-0.240,0.934,-0.054,-0.024,-0.018,0.000,0.000,0.175,0.124,2,2,0,3,7,255,1296,300,942,1296
stim,974,974,0,202011.369,-0.913,-0.119,-0.020,0.389,3182,11,955,3533,267,1075,375,4095,42,0.000,4,1,3.819,0.035,1.060,2.440,2.740,-0.250,-0.226,0.942,-0.026,-0.024,-0.018,0.000,0.000,0.175,0.124,2,2,0,3,7,255,1296,300,947,1296
stim,974,974,0,202016.369,-0.913,-0.119,-0.020,0.389,3176,8,953,3527,232,1051,375,4095,42,0.000,4,1,4.077,0.030,2.580,2.320,2.140,-0.252,-0.236,0.939,0.028,-0.010,-0.002,0.000,0.000,0.175,0.124,2,2,0,3,7,255,1296,300,952,1296
stim,974,974,0,202021.369,-0.913,-0.118,-0.020,0.389,3174,16,943,3520,235,1085,371,4095,42,0.000,4,1,3.519,0.028,2.220,1.900,1.960,-0.250,-0.233,0.938,0.024,0.014,-0.002,0.000,0.000,0.175,0.124,2,2,0,3,7,255,1296,300,957,1296
stim,974,974,0,202026.369,-0.913,-0.118,-0.020,0.389,3167,11,924,3527,235,1066,365,4095,42,0.000,4,1,4.163,0.026,2.780,2.700,1.520,-0.255,-0.235,0.943,0.024,-0.010,-0.002,0.000,0.000,0.175,0.124,2,2,0,3,7,255,1296,300,962,1296
stim,974,974,0,202031.369,-0.913,-0.118,-0.019,0.389,3169,12,918,3529,233,999,364,4095,42,0.000,4,1,3.779,0.029,2.780,1.780,1.840,-0.254,-0.237,0.932,0.024,-0.016,-0.024,0.000,0.000,0.175,0.124,2,2,0,3,7,255,1296,300,967,1296
stim,974,974,0,202036.369,-0.913,-0.118,-0.019,0.389,3179,20,915,3528,243,1033,366,4095,42,0.000,4,1,4.050,0.069,3.000,2.200,1.600,-0.253,-0.244,0.943,0.034,-0.060,0.038,0.000,0.000,0.175,0.124,2,2,0,3,7,255,1296,300,972,1296
stim,974,974,0,202041.369,-0.913,-0.117,-0.019,0.389,3173,3,919,3538,233,1111,364,4095,42,0.000,4,1,4.369,0.110,3.600,1.780,1.720,-0.256,-0.247,0.941,0.088,-0.066,0.054,0.000,0.000,0.175,0.124,2,2,0,3,7,255,1296,300,977,1296
stim,974,974,0,202046.369,-0.913,-0.117,-0.019,0.389,3175,4,905,3527,224,1011,359,4095,42,0.000,4,1,4.805,0.112,3.980,1.780,2.020,-0.256,-0.242,0.945,0.088,-0.070,0.054,0.000,0.000,0.175,0.124,2,2,0,3,7,255,1296,300,982,1296
stim,974,974,0,202051.369,-0.913,-0.117,-0.019,0.390,3173,8,917,3527,205,1043,360,4095,42,0.000,4,1,5.599,0.133,4.900,1.660,2.140,-0.257,-0.246,0.946,0.088,-0.100,0.078,0.000,0.000,0.175,0.124,2,2,0,3,7,255,1296,300,987,1296
stim,1008,1008,0,202056.369,-0.913,-0.117,-0.019,0.390,3155,10,922,3527,201,1013,341,4095,42,0.000,4,1,6.220,0.133,5.560,1.420,2.400,-0.257,-0.249,0.948,0.088,-0.100,0.092,0.000,0.000,0.175,0.124,2,2,0,3,7,255,1296,300,992,1296
stim,1008,1008,0,202061.369,-0.913,-0.116,-0.019,0.390,3163,6,921,3533,222,1075,325,4095,42,0.000,4,1,7.061,0.153,6.480,1.100,2.580,-0.257,-0.248,0.949,0.104,-0.112,0.116,0.000,0.000,0.175,0.124,2,2,0,3,7,255,1296,300,997,1296
stim,1008,1008,0,202066.369,-0.913,-0.116,-0.019,0.390,3149,9,927,3523,223,1015,331,4095,42,0.000,4,1,7.938,0.153,7.400,0.980,2.700,-0.257,-0.246,0.951,0.104,-0.112,0.122,0.000,0.000,0.175,0.124,2,2,0,3,7,255,1296,300,1002,1296
stim,1009,1009,0,202071.369,-0.913,-0.116,-0.019,0.390,3141,6,919,3520,219,1113,331,4095,42,0.000,4,1,8.557,0.153,8.060,0.800,2.760,-0.256,-0.248,0.949,0.104,-0.112,0.122,0.000,0.000,0.175,0.124,2,2,0,3,7,255,1296,300,1007,1296
stim,1055,1055,0,202076.369,-0.913,-0.115,-0.019,0.390,3133,0,909,3531,218,928,342,4095,42,0.000,4,1,9.771,0.153,9.400,0.680,2.580,-0.255,-0.249,0.956,0.118,-0.098,0.138,0.000,0.000,0.175,0.124,2,2,0,3,7,255,1296,300,1012,1296
stim,1055,1055,0,202081.369,-0.914,-0.115,-0.018,0.390,3133,0,889,3516,221,979,339,4095,42,0.000,4,1,11.374,0.153,11.060,0.260,2.640,-0.259,-0.242,0.958,0.118,-0.098,0.178,0.000,0.000,0.175,0.124,2,2,0,3,7,255,1296,300,1017,1296
stim,1057,1057,0,202086.369,-0.914,-0.114,-0.018,0.390,3127,0,917,3515,216,944,339,4095,42,0.000,4,1,13.068,0.125,12.740,0.260,2.900,-0.261,-0.242,0.958,0.078,-0.098,0.190,0.000,0.000,0.175,0.124,2,2,0,3,7,255,1296,300,1022,1296
stim,1057,1057,0,202091.369,-0.914,-0.113,-0.018,0.390,3127,0,893,3512,239,872,332,4095,42,0.000,4,1,14.329,0.127,14.080,0.020,2.660,-0.257,-0.244,0.952,0.078,-0.100,0.190,0.000,0.000,0.175,0.124,2,2,0,3,7,255,1296,300,1027,1296
stim,1071,1071,0,202096.369,-0.914,-0.113,-0.018,0.390,3115,0,895,3508,256,928,339,4095,42,0.000,4,1,14.867,0.144,14.700,-0.100,2.220,-0.256,-0.240,0.951,0.100,-0.104,0.134,0.000,0.000,0.175,0.124,2,2,0,3,7,255,1296,300,1032,1296
stim,1071,1071,0,202101.369,-0.914,-0.112,-0.018,0.390,3113,0,883,3507,221,896,331,4095,42,0.000,4,1,16.513,0.144,16.400,0.140,1.920,-0.257,-0.236,0.954,0.100,-0.104,0.134,0.000,0.000,0.175,0.124,2,2,0,3,7,255,1296,300,1037,1296
stim,1071,1071,0,202106.369,-0.914,-0.111,-0.017,0.390,3099,0,883,3499,199,818,343,4095,42,0.000,4,1,17.810,0.113,17.740,0.200,1.560,-0.257,-0.234,0.959,0.076,-0.084,0.134,0.000,0.000,0.175,0.124,2,2,0,3,7,255,1296,300,1042,1296
stim,1071,1071,0,202111.370,-0.914,-0.110,-0.017,0.390,3098,143,877,3502,185,823,360,4095,42,0.000,4,1,19.190,0.107,19.160,-0.180,1.060,-0.256,-0.232,0.955,0.076,-0.076,0.134,0.000,0.000,0.175,0.124,2,2,0,3,7,255,1296,300,1047,1296
stim,1071,1071,0,202116.369,-0.914,-0.109,-0.017,0.389,3092,123,879,3514,187,829,367,4095,42,0.000,4,1,20.800,0.097,20.800,-0.100,0.080,-0.259,-0.216,0.953,0.074,-0.062,0.128,0.000,0.000,0.175,0.124,2,2,0,3,7,255,1296,300,1052,1296
stim,1071,1071,0,202121.369,-0.915,-0.108,-0.016,0.389,3060,141,876,3488,169,745,365,4095,42,0.000,4,1,22.145,0.043,22.140,0.020,-0.460,-0.263,-0.202,0.949,-0.042,-0.010,0.082,0.000,0.000,0.175,0.124,2,2,0,3,7,255,1296,300,1057,1296
stim,1071,1071,0,202126.369,-0.915,-0.107,-0.016,0.389,3057,116,883,3487,188,731,339,4095,42,0.000,4,1,22.564,0.117,22.520,0.740,-1.200,-0.261,-0.203,0.950,-0.114,0.026,0.028,0.000,0.000,0.175,0.124,2,2,0,3,7,255,1296,300,1062,1296
stim,1071,1071,0,202131.369,-0.915,-0.106,-0.016,0.389,3035,125,878,3499,179,711,339,4095,42,0.000,4,1,22.110,0.117,22.020,0.260,-1.980,-0.254,-0.219,0.944,-0.114,0.026,0.022,0.000,0.000,0.175,0.124,2,2,0,3,7,255,1296,300,1067,1296
stim,1071,1071,0,202136.369,-0.915,-0.105,-0.015,0.388,3023,117,878,3483,240,789,333,4095,42,0.000,4,1,21.731,0.089,21.500,1.420,-2.820,-0.251,-0.229,0.950,0.050,-0.074,0.028,0.000,0.000,0.175,0.124,2,2,0,3,7,255,1296,300,1072,1296
stim,1071,1071,0,202141.369,-0.916,-0.104,-0.015,0.388,2996,117,879,3481,253,842,339,4095,42,0.000,4,1,21.834,0.185,21.500,1.540,-3.480,-0.255,-0.229,0.962,0.144,-0.116,0.060,0.000,0.000,0.175,0.124,2,2,0,3,7,255,1296,300,1077,1296
stim,1087,1087,0,202146.369,-0.916,-0.104,-0.015,0.388,2965,124,895,3477,262,819,341,4095,42,0.000,4,1,23.046,0.185,22.600,1.240,-4.340,-0.261,-0.222,0.966,0.144,-0.116,0.178,0.000,0.000,0.175,0.124,2,2,0,3,7,255,1296,300,1082,1296
stim,1087,1087,0,202151.369,-0.916,-0.102,-0.014,0.387,2937,139,885,3469,246,800,349,4095,42,0.000,4,1,23.161,0.127,22.900,2.820,-2.020,-0.292,-0.154,0.935,0.066,-0.108,0.178,0.000,0.000,0.175,0.124,2,2,0,3,7,255,1296,300,1087,1296
stim,1087,1087,0,202156.369,-0.916,-0.102,-0.013,0.387,2887,107,890,3434,253,903,341,4095,42,0.000,4,1,17.795,0.612,16.620,0.500,6.340,-0.340,-0.182,0.938,-0.602,-0.108,0.074,0.000,0.000,0.175,0.124,2,2,0,3,7,255,1296,300,1092,1296
stim,1087,1087,0,202161.369,-0.916,-0.101,-0.013,0.388,2841,101,875,3429,259,909,363,4095,42,0.000,4,1,17.559,0.758,13.980,-0.280,10.620,-0.282,-0.261,0.954,-0.602,-0.460,0.074,0.000,0.000,0.175,0.124,2,2,0,3,7,255,1296,300,1097,1296
stim,1150,1150,0,202166.369,-0.916,-0.101,-0.013,0.388,2776,119,877,3407,251,854,373,4095,42,0.000,4,1,20.200,0.522,16.740,-1.380,11.220,-0.263,-0.270,0.991,0.246,-0.460,0.232,0.000,0.000,0.175,0.124,2,2,0,3,7,255,1296,300,1102,1296
stim,1150,1150,0,202171.369,-0.916,-0.100,-0.013,0.388,2713,151,861,3384,261,877,365,4095,42,0.000,4,1,22.485,0.456,20.220,-1.620,9.700,-0.260,-0.232,0.988,0.246,-0.384,0.418,0.000,0.000,0.175,0.124,2,2,0,3,7,255,1296,300,1107,1296
stim,1150,1150,0,202176.369,-0.916,-0.099,-0.012,0.388,2641,147,853,3352,277,874,345,4095,42,0.000,4,1,23.184,0.269,22.420,0.700,5.860,-0.246,-0.208,0.969,0.232,-0.136,0.418,0.000,0.000,0.175,0.124,2,2,0,3,7,255,1296,300,1112,1296
stim,1150,1150,0,202181.369,-0.916,-0.098,-0.012,0.388,2535,176,919,3317,301,820,343,4095,42,0.000,4,1,22.073,0.239,21.920,2.040,-1.600,-0.241,-0.215,0.947,0.232,-0.056,0.156,0.000,0.000,0.175,0.124,2,2,0,3,7,255,1296,300,1117,1296
stim,1150,1150,0,202186.369,-0.917,-0.097,-0.012,0.388,2463,200,877,3297,310,852,343,4095,42,0.000,4,1,20.656,0.170,19.500,2.100,-6.480,-0.248,-0.201,0.943,0.166,-0.036,-0.042,0.000,0.000,0.175,0.124,2,2,0,3,7,255,1296,300,1122,1296
stim,1150,1150,0,202191.369,-0.917,-0.097,-0.011,0.387,2343,184,888,3273,304,877,384,4095,42,0.000,4,1,22.562,0.118,14.320,0.740,-17.420,-0.331,-0.216,0.973,0.104,-0.056,-0.042,0.000,0.000,0.175,0.124,2,2,0,3,7,255,1296,300,1127,1296
stim,1150,1150,0,202196.369,-0.918,-0.095,-0.011,0.386,2217,137,869,3237,271,760,407,4095,42,0.000,4,1,30.613,0.340,15.900,-4.080,-25.840,-0.351,0.016,0.943,-0.338,-0.036,-0.090,0.000,0.000,0.175,0.124,2,2,0,3,7,255,1296,300,1132,1296
stim,1150,1150,0,202201.369,-0.918,-0.095,-0.010,0.385,2069,176,852,3195,297,743,352,4095,42,0.000,4,1,19.453,1.462,14.440,-3.340,-12.600,-0.447,-0.180,0.938,-1.344,-0.576,0.330,0.000,0.000,0.175,0.124,2,2,0,3,7,255,1296,300,1137,1296
stim,1182,1182,0,202206.369,-0.918,-0.095,-0.010,0.385,1959,185,827,3181,311,883,355,4095,42,0.000,4,1,7.584,1.806,5.400,-4.680,2.540,-0.481,-0.339,0.973,-1.344,-1.206,0.330,0.000,0.000,0.175,0.124,2,2,0,3,7,255,1296,300,1142,1296
stim,1182,1182,1,202211.369,-0.918,-0.096,-0.011,0.384,1863,173,819,3149,281,779,328,4095,42,0.000,4,1,49.506,2.393,-33.780,-20.360,-29.920,-0.547,-0.401,1.195,-0.452,-2.350,1.028,0.000,0.000,0.175,0.124,2,2,1,3,7,255,1296,300,1147,1296
stim,1182,1182,1,202216.369,-0.918,-0.097,-0.012,0.383,1803,103,851,3147,263,657,376,4095,42,0.000,4,1,37.966,2.385,-16.580,-16.580,-29.860,-0.397,-0.261,1.314,-0.410,-2.350,3.342,0.000,0.000,0.175,0.124,2,2,1,3,7,255,1296,300,1152,1296
stim,1182,1182,1,202221.369,-0.919,-0.097,-0.014,0.382,1817,0,820,3143,245,557,381,4095,42,0.000,4,1,50.478,1.985,-7.300,-33.060,-37.440,-0.568,-0.440,1.481,-0.312,-1.960,3.760,0.000,0.000,0.175,0.124,2,2,1,3,7,255,1296,300,1157,1296
stim,1182,1182,1,202226.369,-0.920,-0.097,-0.017,0.380,1805,0,807,3160,240,639,352,4095,42,0.000,4,1,82.305,0.362,-3.500,-54.540,-61.540,-0.625,0.117,1.334,-0.312,-0.184,3.760,0.000,0.000,0.175,0.124,2,2,1,3,7,255,1296,300,1162,1296
stim,1182,1182,1,202231.369,-0.920,-0.095,-0.019,0.379,1755,0,613,3128,233,653,334,4095,42,0.000,4,1,65.823,3.955,9.800,-56.080,-33.040,-0.597,0.049,1.213,-3.948,0.240,3.664,0.000,0.000,0.175,0.124,2,2,1,3,7,255,1296,300,1167,1296
stim,1182,1182,1,202236.369,-0.920,-0.095,-0.022,0.379,1781,0,612,3131,269,699,353,4095,42,0.000,4,1,65.037,3.955,-9.000,-63.560,-10.440,-0.597,-0.191,1.171,-3.948,0.240,2.596,0.000,0.000,0.175,0.124,2,2,1,3,7,255,1296,300,1172,1296
stim,1182,1182,1,202241.369,-0.920,-0.094,-0.025,0.379,1788,0,639,3127,211,589,330,4095,42,0.000,4,1,74.150,2.827,-17.240,-71.980,-4.460,-0.516,-0.312,1.237,-2.362,-1.554,2.596,0.000,0.000,0.175,0.124,2,2,1,3,7,255,1296,300,1177,1296
stim,1182,1182,1,202246.369,-0.920,-0.092,-0.028,0.380,1785,0,639,3117,172,583,339,4095,42,0.000,4,0,76.619,1.896,6.020,-73.940,19.160,-0.387,-0.173,1.226,-1.086,-1.554,2.596,0.000,0.000,0.175,0.124,2,2,1,3,7,255,1296,300,1182,1296
stim,1182,1182,1,202251.369,-0.920,-0.090,-0.030,0.381,1785,0,615,3130,76,585,318,4095,42,0.000,4,0,81.203,1.010,26.900,-71.620,27.220,-0.308,-0.129,1.171,-1.010,-0.020,2.536,0.000,0.000,0.175,0.124,2,2,1,3,7,255,1296,300,1187,1296
stim,1182,1182,1,202256.369,-0.920,-0.087,-0.033,0.382,1788,0,586,3128,89,419,345,4095,42,0.000,4,0,82.190,1.025,33.000,-73.760,15.020,-0.242,-0.080,1.100,-0.868,0.546,1.766,0.000,0.000,0.175,0.124,2,2,1,3,7,255,1296,300,1192,1296
stim,1182,1182,1,202261.369,-0.920,-0.085,-0.035,0.382,1797,0,504,3123,143,277,327,3951,42,0.000,4,0,80.785,1.289,26.220,-76.380,-2.200,-0.207,-0.052,1.008,-0.778,1.028,0.864,0.000,0.000,0.175,0.124,2,2,1,3,7,255,1296,300,1197,1296
stim,1214,1214,1,202266.369,-0.920,-0.083,-0.038,0.382,1800,0,454,3132,107,289,315,3961,42,0.000,4,0,79.357,1.289,15.840,-76.260,-15.200,-0.209,-0.051,0.966,-0.778,1.028,-0.116,0.000,0.000,0.175,0.124,2,2,1,3,7,255,1296,300,1202,1296
stim,1214,1214,1,202271.369,-0.920,-0.081,-0.041,0.381,1805,0,285,3126,88,118,283,4040,42,0.000,4,0,79.804,1.238,8.100,-76.380,-21.660,-0.222,-0.076,0.957,-0.808,0.938,-0.510,0.000,0.000,0.175,0.124,2,2,1,3,7,255,1296,300,1207,1296
stim,1214,1214,1,202276.369,-0.920,-0.080,-0.044,0.380,1820,0,237,3123,60,153,275,3993,42,0.000,4,0,79.982,1.015,0.900,-76.080,-24.660,-0.240,-0.125,0.991,-0.808,0.614,-0.510,0.000,0.000,0.175,0.124,2,2,1,3,7,255,1296,300,1212,1296
stim,1214,1214,1,202281.369,-0.921,-0.079,-0.048,0.380,1840,0,180,3123,48,175,261,3930,42,0.000,4,0,77.015,0.679,2.720,-74.120,-20.740,-0.223,-0.179,1.038,-0.648,0.204,-0.084,0.000,0.000,0.175,0.124,2,2,1,3,7,255,1296,300,1217,1296
stim,1268,1268,1,202286.369,-0.921,-0.077,-0.050,0.379,1852,0,99,3127,0,159,277,3973,42,0.000,4,0,72.342,0.210,11.680,-70.360,-12.100,-0.248,-0.263,1.067,-0.210,0.014,0.428,0.000,0.000,0.175,0.124,2,2,1,3,7,255,1296,300,1222,1296
stim,1268,1268,1,202291.369,-0.921,-0.075,-0.053,0.379,1864,0,147,3125,0,164,221,4057,42,0.000,4,0,69.751,0.720,15.840,-66.380,-14.420,-0.270,-0.509,1.107,0.140,-0.706,0.902,0.000,0.000,0.175,0.124,2,2,1,3,7,255,1296,300,1227,1296
stim,1269,1269,1,202296.369,-0.921,-0.073,-0.055,0.378,1885,0,89,3148,0,202,245,3383,42,0.000,4,0,80.512,1.296,33.480,-69.320,-23.580,-0.354,-0.234,1.082,0.140,-1.288,1.148,0.000,0.000,0.175,0.124,2,2,1,3,7,255,1296,300,1232,1296
stim,1269,1269,1,202301.369,-0.922,-0.070,-0.058,0.377,1894,0,75,3127,0,204,220,3417,42,0.000,4,0,83.404,1.559,30.300,-75.920,-16.560,-0.444,0.108,1.017,-0.878,-1.288,1.148,0.000,0.000,0.175,0.124,2,2,1,3,7,255,1296,300,1237,1296
stim,1269,1269,1,202306.369,-0.922,-0.067,-0.060,0.377,1912,0,126,3134,0,211,186,3467,42,0.000,4,0,98.492,3.856,56.300,-79.940,-11.860,-0.448,0.150,0.883,-3.854,0.126,0.050,0.000,0.000,0.175,0.124,2,2,1,3,7,255,1296,300,1242,1296
stim,1269,1269,1,202311.369,-0.922,-0.063,-0.062,0.377,1911,0,75,3141,0,158,201,3511,42,0.000,4,0,100.720,3.856,77.360,-63.640,10.480,-0.405,0.004,0.702,-3.854,0.126,-1.302,0.000,0.000,0.175,0.124,2,2,1,3,7,255,1296,300,1247,1296
stim,1270,1270,1,202316.369,-0.922,-0.059,-0.063,0.378,1918,0,70,3125,0,57,199,3512,42,0.000,4,0,74.907,3.044,50.680,-45.880,30.620,-0.451,-0.235,0.679,-2.848,-1.074,-2.622,0.000,0.000,0.175,0.124,2,2,1,3,7,255,1296,300,1252,1296
stim,1270,1270,1,202321.369,-0.921,-0.057,-0.063,0.379,1920,0,56,3143,0,148,149,3530,42,0.000,4,0,67.224,3.454,39.760,-44.480,30.980,-0.443,-0.242,0.723,-1.548,-3.088,-2.622,0.000,0.000,0.175,0.124,2,2,1,3,7,255,1296,300,1257,1296
stim,1282,1282,1,202326.369,-0.921,-0.054,-0.064,0.381,1929,0,72,3125,0,165,156,3338,42,0.000,4,0,77.284,3.454,56.680,-32.700,41.120,-0.375,0.036,0.685,-1.548,-3.088,-2.622,0.000,0.000,0.175,0.124,2,2,1,3,7,255,1296,300,1262,1296
stim,1282,1282,1,202331.369,-0.920,-0.051,-0.063,0.382,1937,0,55,3133,0,123,133,3243,42,0.000,4,0,76.630,2.946,52.400,-12.320,54.540,-0.372,0.333,0.727,-2.822,-0.844,-3.106,0.000,0.000,0.175,0.124,2,2,1,3,7,255,1296,300,1267,1296
stim,1282,1282,1,202336.369,-0.920,-0.049,-0.062,0.385,1942,0,60,3141,0,31,111,3245,42,0.000,4,0,70.762,4.838,41.360,-5.420,57.160,-0.330,0.360,0.634,-4.670,1.264,-3.140,0.000,0.000,0.175,0.124,2,2,1,3,7,255,1296,300,1272,1296
stim,1282,1282,1,202341.370,-0.919,-0.047,-0.061,0.386,1949,0,73,3153,0,95,125,3257,42,0.000,4,0,66.578,4.838,40.060,10.940,52.040,-0.313,0.112,0.486,-4.670,1.264,-4.106,0.000,0.000,0.175,0.124,2,2,1,3,7,255,1296,300,1277,1296
stim,1282,1282,1,202346.369,-0.919,-0.046,-0.059,0.388,1944,0,73,3134,0,63,100,3228,42,0.000,4,0,50.660,2.842,23.280,23.580,38.320,-0.323,-0.089,0.460,-2.816,-0.382,-5.138,0.000,0.000,0.175,0.124,2,2,1,3,7,255,1296,300,1282,1296
stim,1282,1282,1,202351.369,-0.918,-0.047,-0.058,0.389,1961,0,51,3132,0,80,139,3237,42,0.000,4,0,33.680,2.554,-5.460,23.460,23.540,-0.362,-0.091,0.507,-1.724,-1.884,-5.138,0.000,0.000,0.175,0.124,2,2,1,3,7,255,1296,300,1287,1296
stim,1294,1294,1,202356.369,-0.918,-0.048,-0.058,0.389,1972,0,56,3142,0,126,121,3251,42,0.000,4,0,35.833,2.554,-25.660,19.740,15.360,-0.422,0.034,0.620,-1.724,-1.884,-4.620,0.000,0.000,0.175,0.124,2,2,1,3,7,255,1296,300,1292,1296
stim,1294,1294,1,202361.369,-0.918,-0.049,-0.057,0.390,1970,0,52,3143,0,111,127,3240,42,0.000,4,0,37.267,3.312,-25.360,21.560,16.760,-0.493,0.114,0.758,-3.004,-1.394,-3.624,0.000,0.000,0.175,0.124,2,2,1,3,7,255,1296,300,1,1296
stim,1294,1294,1,202366.369,-0.917,-0.049,-0.055,0.391,1975,0,54,3153,0,128,128,3227,42,0.000,4,0,39.239,4.267,-9.420,25.160,28.600,-0.539,0.087,0.832,-4.038,-1.378,-2.302,0.000,0.000,0.175,0.124,2,2,1,3,7,255,1296,300,6,1296
stim,1294,1294,1,202371.369,-0.917,-0.049,-0.054,0.393,1989,0,25,3155,0,121,120,3209,42,0.000,4,0,54.948,4.267,10.340,28.220,46.000,-0.542,0.036,0.797,-4.038,-1.378,-1.720,0.000,0.000,0.175,0.124,2,2,1,3,7,255,1296,300,11,1296
stim,1360,1360,1,202376.369,-0.916,-0.048,-0.052,0.395,2007,0,23,3140,0,103,135,3194,42,0.000,4,0,73.948,4.165,22.860,32.740,62.240,-0.497,0.029,0.710,-3.780,-1.750,-1.720,0.000,0.000,0.175,0.124,2,2,1,3,7,255,1296,300,16,1296
stim,1360,1360,1,202381.369,-0.915,-0.047,-0.049,0.398,1991,0,21,3119,0,137,121,3228,42,0.000,4,0,84.463,3.803,24.820,36.760,71.880,-0.415,0.063,0.630,-3.376,-1.750,-2.590,0.000,0.000,0.175,0.124,2,2,1,3,7,255,1296,300,21,1296
stim,1360,1360,1,202386.369,-0.914,-0.047,-0.047,0.400,1997,0,29,3144,0,142,109,3209,42,0.000,4,0,83.770,3.233,18.440,39.920,71.300,-0.340,0.080,0.588,-3.028,-1.132,-3.518,0.000,0.000,0.175,0.124,2,2,1,3,7,255,1296,300,26,1296
stim,1360,1360,1,202391.369,-0.913,-0.047,-0.045,0.403,2008,0,23,3135,0,124,105,3255,42,0.000,4,0,76.825,2.676,7.760,42.360,63.620,-0.311,0.064,0.593,-2.608,-0.600,-4.012,0.000,0.000,0.175,0.124,2,2,1,3,7,255,1296,300,31,1296
stim,1360,1360,1,202396.369,-0.912,-0.047,-0.043,0.405,2007,0,23,3143,0,110,155,3204,42,0.000,4,0,70.995,2.346,-1.940,44.380,55.380,-0.316,0.042,0.625,-2.270,-0.594,-4.012,0.000,0.000,0.175,0.124,2,2,1,3,7,255,1296,300,36,1296
stim,1360,1360,1,202401.369,-0.911,-0.048,-0.041,0.407,2008,0,17,3120,0,78,183,3241,42,0.000,4,0,69.595,2.271,-6.760,46.760,51.100,-0.352,0.024,0.666,-2.192,-0.594,-3.652,0.000,0.000,0.175,0.124,2,2,1,3,7,255,1296,300,41,1296
stim,1362,1362,1,202406.369,-0.911,-0.048,-0.039,0.409,2021,0,13,3136,0,112,135,3215,42,0.000,4,0,73.517,2.356,-7.020,49.760,53.660,-0.396,0.015,0.704,-2.192,-0.864,-3.170,0.000,0.000,0.175,0.124,2,2,1,3,7,255,1296,300,46,1296
stim,1362,1362,1,202411.369,-0.910,-0.049,-0.036,0.411,2021,0,19,3153,0,102,126,3228,42,0.000,4,0,81.540,2.640,-5.480,52.440,62.200,-0.423,0.012,0.728,-2.380,-1.142,-2.704,0.000,0.000,0.175,0.124,2,2,1,3,7,255,1296,300,51,1296
stim,1362,1362,1,202416.370,-0.908,-0.050,-0.034,0.414,2023,0,18,3144,0,90,147,3223,42,0.000,4,0,91.334,2.707,-4.320,54.880,72.880,-0.418,0.000,0.742,-2.380,-1.290,-2.408,0.000,0.000,0.175,0.124,2,2,1,3,7,255,1296,300,56,1296
stim,1362,1362,1,202421.369,-0.907,-0.050,-0.031,0.417,2029,0,12,3151,0,104,105,3226,42,0.000,4,0,99.516,2.662,-4.200,56.780,81.620,-0.389,-0.027,0.750,-2.328,-1.290,-2.256,0.000,0.000,0.175,0.124,2,2,1,3,7,255,1296,300,61,1296
stim,1363,1363,1,202426.369,-0.906,-0.051,-0.028,0.420,2041,0,11,3163,0,96,125,3199,42,0.000,4,0,103.555,2.248,-5.980,58.000,85.580,-0.354,-0.058,0.757,-1.890,-1.218,-2.190,0.000,0.000,0.175,0.124,2,2,1,3,7,255,1296,300,66,1296
stim,1363,1363,1,202431.369,-0.904,-0.052,-0.025,0.423,2037,0,20,3141,0,91,135,3205,42,0.000,4,0,104.440,1.792,-9.700,58.900,85.700,-0.333,-0.082,0.771,-1.392,-1.128,-2.134,0.000,0.000,0.175,0.124,2,2,1,3,7,255,1296,300,71,1296
stim,1364,1364,1,202436.369,-0.903,-0.053,-0.023,0.426,2031,0,21,3147,0,67,94,3219,42,0.000,4,0,104.628,1.500,-14.200,59.160,85.120,-0.333,-0.100,0.799,-1.030,-1.090,-2.000,0.000,0.000,0.175,0.124,2,2,1,3,7,255,1296,300,76,1296
stim,1364,1364,1,202441.369,-0.901,-0.054,-0.020,0.430,2030,0,11,3146,0,73,89,3198,42,0.000,4,0,106.482,1.376,-18.220,59.160,86.640,-0.347,-0.115,0.837,-0.840,-1.090,-1.706,0.000,0.000,0.175,0.124,2,2,1,3,7,255,1296,300,81,1296
stim,1390,1390,1,202446.369,-0.899,-0.055,-0.018,0.433,2027,0,20,3144,0,70,96,3187,42,0.000,4,0,110.709,1.382,-21.280,58.920,91.280,-0.359,-0.130,0.880,-0.748,-1.162,-1.286,0.000,0.000,0.175,0.124,2,2,1,3,7,255,1296,300,86,1296
stim,1390,1390,1,202451.369,-0.898,-0.056,-0.015,0.437,2029,0,12,3133,0,109,93,3259,42,0.000,4,0,116.349,1.348,-23.460,58.060,98.060,-0.358,-0.151,0.922,-0.652,-1.180,-0.830,0.000,0.000,0.175,0.124,2,2,1,3,7,255,1296,300,91,1296
stim,1390,1390,1,202456.369,-0.896,-0.057,-0.013,0.441,2037,0,11,3143,0,103,101,3238,42,0.000,4,0,122.997,1.250,-25.660,57.200,105.820,-0.341,-0.178,0.962,-0.412,-1.180,-0.400,0.000,0.000,0.175,0.124,2,2,1,3,7,255,1296,300,96,1296
stim,1390,1390,1,202461.369,-0.893,-0.058,-0.010,0.445,2031,0,17,3131,0,85,115,3270,42,0.000,4,0,127.790,1.067,-27.560,56.300,111.360,-0.314,-0.222,1.005,-0.036,-1.066,-0.024,0.000,0.000,0.175,0.124,2,2,1,3,7,255,1296,300,101,1296
stim,1486,1486,1,202466.369,-0.891,-0.059,-0.008,0.450,2037,0,7,3160,0,103,112,3250,42,0.000,4,0,131.095,1.103,-27.800,55.140,115.640,-0.284,-0.247,1.042,0.532,-0.966,0.382,0.000,0.000,0.175,0.124,2,2,1,3,7,255,1296,300,106,1296
stim,1486,1486,1,202471.369,-0.889,-0.061,-0.005,0.454,2042,0,6,3153,0,103,106,3245,42,0.000,4,0,133.052,1.220,-27.560,53.420,118.700,-0.263,-0.258,1.062,0.978,-0.730,0.684,0.000,0.000,0.175,0.124,2,2,1,3,7,255,1296,300,111,1296
stim,1486,1486,1,202476.369,-0.886,-0.062,-0.003,0.459,2031,0,0,3160,0,68,121,3229,42,0.000,4,0,133.712,1.357,-28.040,51.660,120.100,-0.246,-0.263,1.071,1.250,-0.528,0.830,0.000,0.000,0.175,0.124,2,2,1,3,7,255,1296,300,116,1296
stim,1486,1486,1,202481.369,-0.884,-0.063,-0.001,0.464,2030,0,0,3129,0,123,116,3248,42,0.000,4,0,134.084,1.478,-30.060,48.840,121.200,-0.233,-0.266,1.077,1.438,-0.340,0.882,0.000,0.000,0.175,0.124,2,2,1,3,7,255,1296,300,121,1296
stim,1486,1486,1,202486.369,-0.881,-0.064,0.001,0.468,2024,0,0,3143,0,96,107,3231,42,0.000,4,0,134.994,1.585,-34.880,45.540,122.200,-0.221,-0.276,1.085,1.574,-0.188,0.904,0.000,0.000,0.175,0.124,2,2,1,3,7,255,1296,300,126,1296
stim,1486,1486,1,202491.370,-0.879,-0.065,0.003,0.473,2011,0,0,3124,0,113,103,3229,42,0.000,4,0,136.864,1.767,-41.180,41.940,123.600,-0.208,-0.301,1.113,1.766,-0.062,0.952,0.000,0.000,0.175,0.124,2,2,1,3,7,255,1296,300,131,1296
stim,1486,1486,1,202496.369,-0.876,-0.067,0.004,0.478,2037,0,0,3133,0,26,117,3232,42,0.000,4,0,139.153,2.081,-46.300,37.540,125.740,-0.193,-0.329,1.158,2.080,0.056,1.202,0.000,0.000,0.175,0.124,2,2,1,3,7,255,1296,300,136,1296
stim,1486,1486,1,202501.369,-0.873,-0.068,0.006,0.483,2015,0,0,3116,0,12,101,3243,42,0.000,4,0,140.677,2.442,-46.660,33.020,128.540,-0.169,-0.364,1.205,2.432,0.226,1.610,0.000,0.000,0.175,0.124,2,2,1,3,7,255,1296,300,141,1296
stim,1486,1486,1,202506.369,-0.870,-0.069,0.007,0.488,2023,0,0,3116,0,0,117,3236,42,0.000,4,0,140.483,2.923,-42.460,30.040,130.500,-0.137,-0.397,1.251,2.890,0.438,2.020,0.000,0.000,0.175,0.124,2,2,1,3,7,255,1296,300,146,1296
stim,1486,1486,0,202511.369,-0.867,-0.070,0.008,0.493,2029,0,0,3126,0,0,105,3251,42,0.000,4,0,139.214,3.455,-37.700,24.360,131.780,-0.104,-0.422,1.253,3.374,0.746,2.338,0.000,0.000,0.175,0.124,2,2,0,3,7,255,1296,300,151,1296
stim,1486,1486,0,202516.369,-0.864,-0.070,0.009,0.498,2027,0,0,3127,0,0,91,3192,42,0.000,4,0,137.548,3.889,-34.100,19.360,131.840,-0.069,-0.442,1.235,3.770,0.956,2.338,0.000,0.000,0.175,0.124,2,2,0,3,7,255,1296,300,156,1296
stim,1486,1486,0,202521.369,-0.861,-0.070,0.010,0.503,2013,0,0,3117,0,0,88,3245,42,0.000,4,0,134.531,4.276,-32.260,14.840,129.760,-0.029,-0.452,1.219,4.118,1.150,2.084,0.000,0.000,0.175,0.124,2,2,0,3,7,255,1296,300,161,1296
stim,1486,1486,0,202526.369,-0.858,-0.071,0.011,0.508,2009,0,0,3111,0,0,91,3213,42,0.000,4,0,130.457,4.628,-32.320,9.400,126.040,0.009,-0.456,1.205,4.396,1.446,1.818,0.000,0.000,0.175,0.124,2,2,0,3,7,255,1296,300,166,1296
stim,1486,1486,0,202531.369,-0.855,-0.071,0.011,0.513,2007,0,0,3117,0,0,91,3226,42,0.000,4,0,125.072,4.935,-32.020,3.920,120.840,0.042,-0.454,1.190,4.610,1.760,1.570,0.000,0.000,0.175,0.124,2,2,0,3,7,255,1296,300,171,1296
stim,1486,1486,0,202536.369,-0.853,-0.071,0.012,0.517,2005,0,0,3111,0,0,85,3207,42,0.000,4,0,118.701,5.166,-31.800,-0.620,114.360,0.070,-0.447,1.183,4.742,2.050,1.326,0.000,0.000,0.175,0.124,2,2,0,3,7,255,1296,300,176,1296
stim,1486,1486,0,202541.369,-0.850,-0.071,0.012,0.521,1997,0,0,3112,0,0,85,3243,42,0.000,4,0,111.820,5.332,-31.120,-5.120,107.280,0.092,-0.438,1.171,4.794,2.334,1.164,0.000,0.000,0.175,0.124,2,2,0,3,7,255,1296,300,181,1296
stim,1486,1486,0,202546.369,-0.848,-0.071,0.011,0.525,1993,0,0,3112,0,0,89,3244,42,0.000,4,0,103.766,5.440,-28.200,-8.240,99.520,0.109,-0.439,1.162,4.796,2.568,0.980,0.000,0.000,0.175,0.124,2,2,0,3,7,255,1296,300,186,1296
stim,1486,1486,0,202551.369,-0.846,-0.071,0.011,0.529,1995,0,0,3113,0,0,89,3248,42,0.000,4,0,95.233,5.561,-26.180,-10.320,90.980,0.123,-0.434,1.165,4.854,2.714,0.838,0.000,0.000,0.175,0.124,2,2,0,3,7,255,1296,300,191,1296
stim,1486,1486,0,202556.369,-0.844,-0.071,0.011,0.532,1991,0,2,3124,0,0,85,3217,42,0.000,4,0,88.755,5.653,-26.300,-14.840,83.460,0.138,-0.416,1.132,4.854,2.898,0.816,0.000,0.000,0.175,0.124,2,2,0,3,7,255,1296,300,196,1296
stim,1486,1486,0,202561.369,-0.842,-0.071,0.010,0.535,1993,0,0,3111,0,0,90,3245,42,0.000,4,0,82.009,5.613,-26.920,-17.160,75.540,0.163,-0.389,1.118,4.726,3.028,0.454,0.000,0.000,0.175,0.124,2,2,0,3,7,255,1296,300,201,1296
stim,1518,1518,0,202566.370,-0.840,-0.070,0.010,0.538,1983,0,0,3116,0,0,89,3239,42,0.000,4,0,73.553,5.648,-25.820,-20.080,65.880,0.186,-0.358,1.108,4.566,3.324,0.218,0.000,0.000,0.175,0.124,2,2,0,3,7,255,1296,300,206,1296
stim,1518,1518,0,202571.370,-0.839,-0.070,0.009,0.540,1999,0,3,3125,0,0,83,3271,42,0.000,4,0,61.833,5.676,-21.540,-21.860,53.680,0.190,-0.326,1.098,4.360,3.634,0.034,0.000,0.000,0.175,0.124,2,2,0,3,7,255,1296,300,211,1296
stim,1518,1518,0,202576.369,-0.838,-0.070,0.008,0.541,2001,0,2,3124,0,0,79,3243,42,0.000,4,0,50.011,5.463,-17.020,-22.960,41.040,0.169,-0.290,1.070,4.066,3.648,-0.102,0.000,0.000,0.175,0.124,2,2,0,3,7,255,1296,300,216,1296
stim,1518,1518,0,202581.369,-0.837,-0.069,0.006,0.543,1991,0,0,3115,0,0,79,3223,42,0.000,4,0,41.099,5.145,-17.520,-23.680,28.660,0.169,-0.252,1.022,3.628,3.648,-0.336,0.000,0.000,0.175,0.124,2,2,0,3,7,255,1296,300,221,1296
stim,1566,1566,0,202586.369,-0.837,-0.069,0.005,0.544,1994,0,8,3122,0,0,69,3232,42,0.000,4,0,37.792,4.892,-24.540,-25.200,13.820,0.193,-0.222,1.007,3.260,3.648,-0.808,0.000,0.000,0.175,0.124,2,2,0,3,7,255,1296,300,226,1296
stim,1566,1566,0,202591.369,-0.836,-0.070,0.003,0.544,2003,0,17,3115,0,0,59,3255,42,0.000,4,0,40.361,4.879,-30.700,-26.180,-1.060,0.179,-0.231,1.031,3.050,3.808,-0.808,0.000,0.000,0.175,0.124,2,2,0,3,7,255,1296,300,231,1296
stim,1566,1566,0,202596.369,-0.836,-0.070,0.001,0.544,1997,0,18,3127,0,0,67,3239,42,0.000,4,0,44.537,4.879,-34.000,-26.420,-11.380,0.142,-0.275,1.082,3.050,3.808,-0.746,0.000,0.000,0.175,0.124,2,2,0,3,7,255,1296,300,236,1296
stim,1567,1567,0,202601.369,-0.836,-0.071,-0.001,0.543,2009,0,17,3119,0,0,59,3255,42,0.000,4,0,46.823,4.844,-33.880,-25.260,-20.160,0.145,-0.274,1.128,3.212,3.626,-0.100,0.000,0.000,0.175,0.124,2,2,0,3,7,255,1296,300,241,1296
stim,1582,1582,0,202606.369,-0.837,-0.071,-0.003,0.543,2015,0,17,3125,0,0,67,3233,42,0.000,4,0,43.566,4.844,-23.440,-24.540,-27.320,0.129,-0.224,1.157,3.212,3.626,0.338,0.000,0.000,0.175,0.124,2,2,0,3,7,255,1296,300,246,1296
stim,1582,1582,0,202611.369,-0.838,-0.071,-0.004,0.542,2021,0,19,3125,0,0,64,3256,42,0.000,4,0,35.945,4.581,-7.800,-19.900,-28.900,0.114,-0.247,1.138,2.800,3.626,0.508,0.000,0.000,0.175,0.124,2,2,0,3,7,255,1296,300,251,1296
stim,1582,1582,0,202616.369,-0.838,-0.071,-0.005,0.541,2023,0,20,3117,0,0,76,3243,42,0.000,4,0,37.209,4.419,-1.400,-17.400,-32.860,0.137,-0.231,1.062,2.744,3.464,0.508,0.000,0.000,0.175,0.124,2,2,0,3,7,255,1296,300,256,1296
stim,1582,1582,0,202621.369,-0.839,-0.070,-0.006,0.539,2026,0,19,3119,0,0,76,3257,42,0.000,4,0,40.851,4.414,5.860,-13.800,-38.000,0.139,-0.210,1.019,2.744,3.458,-0.276,0.000,0.000,0.175,0.124,2,2,0,3,7,255,1296,300,261,1296
stim,1582,1582,0,202626.369,-0.840,-0.070,-0.007,0.538,2024,0,21,3117,0,0,73,3244,42,0.000,4,0,46.593,4.406,4.100,-8.540,-45.620,0.169,-0.213,0.971,2.722,3.464,-0.700,0.000,0.000,0.175,0.124,2,2,0,3,7,255,1296,300,266,1296
stim,1582,1582,0,202631.369,-0.841,-0.070,-0.008,0.536,2028,0,22,3109,0,0,73,3251,42,0.000,4,0,55.606,4.279,3.600,-6.220,-55.140,0.149,-0.182,0.971,2.566,3.424,-1.204,0.000,0.000,0.175,0.124,2,2,0,3,7,255,1296,300,271,1296
stim,1582,1582,0,202636.369,-0.843,-0.070,-0.008,0.533,2031,0,22,3117,0,0,75,3251,42,0.000,4,0,62.344,4.347,7.160,1.980,-61.900,0.154,-0.214,0.966,2.678,3.424,-1.216,0.000,0.000,0.175,0.124,2,2,0,3,7,255,1296,300,276,1296
stim,1582,1582,0,202641.370,-0.845,-0.070,-0.008,0.531,2039,0,22,3128,0,0,75,3274,42,0.000,4,0,72.602,4.107,6.000,3.260,-72.280,0.114,-0.206,0.925,2.442,3.302,-1.216,0.000,0.000,0.175,0.124,2,2,0,3,7,255,1296,300,281,1296
stim,1582,1582,0,202646.370,-0.846,-0.071,-0.008,0.528,2038,0,22,3127,0,0,73,3253,42,0.000,4,0,75.853,3.844,13.320,11.000,-73.860,0.099,-0.225,0.942,2.562,2.866,-1.272,0.000,0.000,0.175,0.124,2,2,0,3,7,255,1296,300,286,1296
stim,1582,1582,0,202651.369,-0.848,-0.071,-0.008,0.525,2043,0,21,3113,0,0,73,3281,42,0.000,4,0,83.615,3.638,10.020,11.000,-82.280,0.063,-0.189,0.871,2.442,2.696,-1.502,0.000,0.000,0.175,0.124,2,2,0,3,7,255,1296,300,291,1296
stim,1599,1599,0,202656.369,-0.850,-0.071,-0.008,0.522,2039,0,23,3112,0,0,79,3255,42,0.000,4,0,82.870,3.311,14.600,16.440,-79.900,0.066,-0.216,0.900,2.358,2.324,-1.594,0.000,0.000,0.175,0.124,2,2,0,3,7,255,1296,300,296,1296
stim,1599,1599,0,202661.369,-0.852,-0.072,-0.008,0.518,2056,0,19,3123,0,0,68,3131,42,0.000,4,0,91.031,3.246,10.940,15.340,-89.060,0.037,-0.222,0.832,2.278,2.312,-1.894,0.000,0.000,0.175,0.124,2,2,0,3,7,255,1296,300,301,1296
stim,1599,1599,0,202666.369,-0.854,-0.072,-0.008,0.515,2055,0,18,3109,0,0,77,2955,42,0.000,4,0,91.435,3.087,13.320,19.560,-88.320,0.059,-0.240,0.858,2.358,1.992,-1.932,0.000,0.000,0.175,0.124,2,2,0,3,7,255,1296,300,306,1296
stim,1599,1599,0,202671.369,-0.856,-0.073,-0.007,0.511,2055,0,21,3083,0,0,77,2855,42,0.000,4,0,97.546,2.976,11.240,16.620,-95.460,0.005,-0.246,0.806,2.348,1.828,-2.140,0.000,0.000,0.175,0.124,2,2,0,3,7,255,1296,300,311,1296
stim,1662,1662,0,202676.369,-0.858,-0.074,-0.007,0.508,2045,0,21,3101,0,0,72,2795,42,0.000,4,0,100.996,2.919,9.720,20.280,-98.460,0.036,-0.219,0.811,2.348,1.734,-2.270,0.000,0.000,0.175,0.124,2,2,0,3,7,255,1296,300,316,1296
stim,1662,1662,0,202681.369,-0.861,-0.074,-0.007,0.504,2059,0,22,3098,0,0,73,2869,42,0.000,4,0,99.623,2.662,8.800,16.920,-97.780,-0.014,-0.249,0.786,2.290,1.358,-2.342,0.000,0.000,0.175,0.124,2,2,0,3,7,255,1296,300,321,1296
stim,1662,1662,0,202686.369,-0.863,-0.075,-0.007,0.500,2063,0,19,3109,0,0,73,2951,42,0.000,4,0,107.694,2.578,3.440,18.140,-106.100,-0.009,-0.217,0.760,2.276,1.210,-2.400,0.000,0.000,0.175,0.124,2,2,0,3,7,255,1296,300,326,1296
stim,1662,1662,0,202691.369,-0.865,-0.076,-0.008,0.496,2063,0,21,3099,0,0,71,2955,42,0.000,4,0,103.101,2.324,1.620,16.860,-101.700,-0.021,-0.223,0.774,2.034,1.124,-2.518,0.000,0.000,0.175,0.124,2,2,0,3,7,255,1296,300,331,1296
stim,1694,1694,0,202696.369,-0.867,-0.077,-0.008,0.492,2071,0,22,3115,0,0,61,2935,42,0.000,4,0,108.503,2.313,-5.280,13.740,-107.500,-0.061,-0.230,0.748,2.022,1.124,-2.644,0.000,0.000,0.175,0.124,2,2,0,3,7,255,1296,300,336,1296
stim,1694,1694,0,202701.369,-0.869,-0.079,-0.008,0.488,2069,0,22,3100,0,0,67,3020,42,0.000,4,0,109.950,2.042,-8.340,14.120,-108.720,-0.064,-0.209,0.770,1.868,0.824,-2.518,0.000,0.000,0.175,0.124,2,2,0,3,7,255,1296,300,341,1296
stim,1694,1694,0,202706.369,-0.871,-0.080,-0.009,0.484,2072,0,24,3102,0,0,72,2908,42,0.000,4,0,104.540,1.802,-12.180,10.460,-103.300,-0.093,-0.207,0.782,1.668,0.682,-2.464,0.000,0.000,0.175,0.124,2,2,0,3,7,255,1296,300,346,1296
stim,1694,1694,0,202711.371,-0.873,-0.082,-0.010,0.481,2077,0,21,3108,0,0,71,2889,42,0.000,4,0,103.977,1.789,-18.580,8.620,-101.940,-0.108,-0.244,0.802,1.668,0.646,-2.268,0.000,0.000,0.175,0.124,2,2,0,3,7,255,1296,300,351,1296
stim,1694,1694,0,202716.369,-0.875,-0.083,-0.011,0.477,2087,0,23,3104,0,0,58,2932,42,0.000,4,0,98.829,1.772,-17.000,7.580,-97.060,-0.097,-0.250,0.843,1.676,0.576,-1.980,0.000,0.000,0.175,0.124,2,2,0,3,7,255,1296,300,356,1296
stim,1694,1694,0,202721.370,-0.877,-0.084,-0.012,0.474,2087,0,23,3111,0,0,57,2973,42,0.000,4,0,92.190,1.772,-17.000,4.840,-90.480,-0.102,-0.228,0.844,1.676,0.576,-1.628,0.000,0.000,0.175,0.124,2,2,0,3,7,255,1296,300,361,1296
stim,1694,1694,0,202726.369,-0.878,-0.086,-0.013,0.471,2085,0,24,3108,0,0,54,2914,42,0.000,4,0,87.175,1.863,-19.680,3.320,-84.860,-0.092,-0.267,0.854,1.772,0.576,-1.616,0.000,0.000,0.175,0.124,2,2,0,3,7,255,1296,300,366,1296
stim,1694,1694,0,202731.369,-0.879,-0.087,-0.014,0.468,2086,0,22,3099,0,0,54,2919,42,0.000,4,0,81.627,1.996,-14.860,2.640,-80.220,-0.068,-0.267,0.858,1.884,0.660,-1.510,0.000,0.000,0.175,0.124,2,2,0,3,7,255,1296,300,371,1296
stim,1694,1694,0,202736.369,-0.881,-0.088,-0.014,0.465,2087,0,23,3109,0,0,51,2895,42,0.000,4,0,78.082,2.029,-12.660,1.180,-77.040,-0.056,-0.206,0.812,1.884,0.752,-1.510,0.000,0.000,0.175,0.124,2,2,0,3,7,255,1296,300,376,1296
stim,1694,1694,0,202741.369,-0.882,-0.089,-0.015,0.462,2087,0,22,3103,0,0,51,2909,42,0.000,4,0,76.249,2.033,-19.620,-0.540,-73.680,-0.038,-0.221,0.808,1.756,1.024,-2.068,0.000,0.000,0.175,0.124,2,2,0,3,7,255,1296,300,381,1296
stim,1694,1694,0,202746.369,-0.883,-0.090,-0.016,0.460,2087,0,23,3107,0,0,53,2897,42,0.000,4,0,75.205,2.054,-24.080,-0.900,-71.240,-0.023,-0.254,0.842,1.756,1.066,-2.068,0.000,0.000,0.175,0.124,2,2,0,3,7,255,1296,300,386,1296
stim,1694,1694,0,202751.369,-0.884,-0.092,-0.018,0.457,2091,0,24,3115,0,0,45,2925,42,0.000,4,0,75.143,2.190,-23.580,-2.600,-71.300,-0.010,-0.223,0.817,1.892,1.102,-2.094,0.000,0.000,0.175,0.124,2,2,0,3,7,255,1296,300,391,1296
stim,1694,1694,0,202756.369,-0.886,-0.093,-0.019,0.455,2069,0,16,3107,0,0,0,2431,42,0.000,4,0,77.339,2.289,-30.180,-3.520,-71.120,-0.008,-0.185,0.803,1.892,1.288,-2.094,0.000,0.000,0.175,0.124,2,2,0,3,7,255,1296,300,396,1296
stim,1694,1694,0,202761.369,-0.886,-0.097,-0.022,0.452,1972,0,19,3104,0,0,0,2462,42,0.000,4,0,132.458,2.289,-95.180,-3.280,-92.060,-0.474,-0.769,1.223,1.892,1.288,-2.094,0.000,0.000,0.175,0.124,2,2,0,3,7,255,1296,300,401,1296
stim,1694,1694,0,202766.369,-0.889,-0.105,-0.027,0.445,1887,0,5,3109,0,0,6,2637,42,0.000,4,0,272.191,5.087,-165.260,-11.760,-215.960,-0.891,-2.196,1.749,3.294,-3.876,3.924,0.000,0.000,0.175,0.124,2,2,0,3,7,255,1296,300,406,1296
stim,1694,1694,0,202771.369,-0.894,-0.101,-0.023,0.437,1932,0,10,3111,0,0,5,2599,42,0.000,4,0,250.166,5.087,163.240,56.600,-180.920,-1.137,0.432,1.629,3.294,-3.876,6.904,0.000,0.000,0.175,0.124,2,2,0,3,7,255,1296,300,411,1296
stim,1775,1775,0,202776.369,-0.897,-0.096,-0.017,0.431,2013,0,24,3104,0,0,0,2631,42,0.000,4,0,234.833,10.215,186.920,94.200,-106.460,-2.014,1.992,1.896,-10.208,-0.380,8.760,0.000,0.000,0.175,0.124,2,2,0,3,7,255,1296,300,416,1296
stim,1775,1775,0,202781.369,-0.900,-0.099,-0.020,0.424,2215,0,31,3119,0,2,0,3007,42,0.000,4,0,186.275,18.072,-49.340,-3.880,-179.580,-1.776,0.954,1.780,-18.068,-0.380,8.760,0.000,0.000,0.175,0.124,2,2,0,3,7,255,1296,300,421,1296
stim,1790,1790,0,202786.369,-0.903,-0.093,-0.019,0.420,2349,116,59,3111,0,0,0,2917,42,0.000,4,0,188.944,18.093,167.520,-20.380,-84.980,-1.381,0.293,0.863,-18.068,-0.954,8.760,0.000,0.000,0.175,0.124,2,2,0,3,7,255,1296,300,426,1296
stim,1790,1790,0,202791.369,-0.904,-0.088,-0.018,0.418,2507,104,29,3118,0,20,0,2771,42,0.000,4,0,124.591,11.884,116.980,-28.740,-31.820,-1.250,0.323,0.446,-10.722,-5.126,0.766,0.000,0.000,0.175,0.124,2,2,0,3,7,255,1296,300,431,1296
stim,1790,1790,0,202796.370,-0.903,-0.083,-0.016,0.422,2598,102,47,3113,0,8,0,2671,42,0.000,4,0,146.787,11.492,79.940,-12.440,122.480,-1.480,0.099,0.336,-10.180,-5.332,-3.488,0.000,0.000,0.175,0.124,2,2,0,3,7,255,1296,300,436,1296
stim,1790,1790,0,202801.369,-0.899,-0.082,-0.016,0.430,2663,111,43,3129,0,1,0,2615,42,0.000,4,0,200.070,11.260,-15.280,-25.880,197.800,-0.916,0.473,0.131,-9.918,-5.332,-3.526,0.000,0.000,0.175,0.124,2,2,0,3,7,255,1296,300,441,1296
stim,1790,1790,0,202806.369,-0.893,-0.085,-0.016,0.442,2710,113,99,3124,0,6,37,2675,42,0.000,4,0,308.846,9.672,-127.880,-2.080,281.120,-0.468,0.071,0.392,-9.100,-3.276,-5.416,0.000,0.000,0.175,0.124,2,2,0,3,7,255,1296,300,446,1296
stim,1790,1790,0,202811.370,-0.886,-0.090,-0.016,0.454,2747,109,104,3151,0,75,56,2843,42,0.000,4,0,353.255,3.619,-194.480,32.720,293.080,-0.057,-0.279,0.878,-3.146,-1.788,-5.416,0.000,0.000,0.175,0.124,2,2,0,3,7,255,1296,300,451,1296
stim,1791,1791,0,202816.369,-0.880,-0.096,-0.015,0.465,2772,79,120,3197,0,59,57,2871,42,0.000,4,0,318.442,2.250,-170.180,44.680,265.420,0.269,-0.611,1.512,2.104,0.796,-1.314,0.000,0.000,0.175,0.124,2,2,0,3,7,255,1296,300,456,1296
stim,1791,1791,0,202821.369,-0.875,-0.098,-0.014,0.473,2795,111,71,3256,0,268,61,3087,42,0.000,4,0,214.657,7.534,-86.260,17.520,195.780,0.540,-0.792,1.852,6.576,3.676,4.310,0.000,0.000,0.175,0.124,2,2,0,3,7,255,1296,300,461,1296
stim,1791,1791,0,202826.369,-0.874,-0.096,-0.013,0.477,2804,115,90,3307,0,371,84,3147,42,0.000,4,0,98.618,10.268,15.980,-6.460,97.100,0.552,-0.631,1.698,8.248,6.116,5.254,0.000,0.000,0.175,0.124,2,2,0,3,7,255,1296,300,466,1296
stim,1791,1791,0,202831.369,-0.875,-0.093,-0.012,0.476,2813,137,89,3348,0,359,78,3227,42,0.000,4,0,80.985,10.268,80.120,3.000,-11.420,0.266,0.016,1.093,8.248,6.116,5.254,0.000,0.000,0.175,0.124,2,2,0,3,7,255,1296,300,471,1296
stim,1792,1792,0,202836.369,-0.877,-0.092,-0.011,0.472,2821,131,80,3361,0,469,91,3177,42,0.000,4,0,92.394,5.885,60.960,13.320,-68.140,-0.081,0.283,0.643,1.504,5.690,-0.750,0.000,0.000,0.175,0.124,2,2,0,3,7,255,1296,300,476,1296
stim,1792,1792,0,202841.369,-0.878,-0.092,-0.011,0.469,2827,131,75,3355,0,500,93,3136,42,0.000,4,0,77.529,3.081,3.220,9.480,-76.880,-0.306,-0.084,0.528,-0.834,2.966,-4.260,0.000,0.000,0.175,0.124,2,2,0,3,7,255,1296,300,481,1296
stim,1793,1793,0,202846.369,-0.879,-0.095,-0.012,0.467,2837,94,73,3367,0,533,104,3145,42,0.000,4,0,77.699,1.332,-47.060,6.900,-61.440,-0.435,-0.410,0.667,-0.834,-1.038,-4.260,0.000,0.000,0.175,0.124,2,2,0,3,7,255,1296,300,486,1296
stim,1793,1793,0,202851.369,-0.879,-0.097,-0.014,0.467,2829,97,71,3351,0,730,84,3228,42,0.000,4,0,78.923,2.784,-72.580,2.940,-30.860,-0.540,-0.282,0.866,-0.636,-2.710,-2.038,0.000,0.000,0.175,0.124,2,2,0,3,7,255,1296,300,491,1296
stim,1793,1793,0,202856.369,-0.878,-0.100,-0.015,0.468,2833,107,75,3365,0,765,86,3222,42,0.000,4,0,72.035,2.784,-71.120,-2.860,11.080,-0.552,-0.015,1.095,-0.636,-2.710,-0.140,0.000,0.000,0.175,0.124,2,2,0,3,7,255,1296,300,496,1296
stim,1793,1793,0,202861.369,-0.877,-0.101,-0.015,0.470,2829,77,69,3351,0,793,78,3243,42,0.000,4,0,63.407,2.406,-44.080,-1.320,45.560,-0.414,0.008,1.229,-2.330,-0.600,1.500,0.000,0.000,0.175,0.124,2,2,0,3,7,255,1296,300,501,1296
stim,1806,1806,0,202866.369,-0.876,-0.101,-0.015,0.472,2835,105,69,3355,0,807,76,3940,42,0.000,4,0,58.270,2.545,-9.160,1.720,57.520,-0.234,-0.104,1.152,-2.330,1.024,1.500,0.000,0.000,0.175,0.124,2,2,0,3,7,255,1296,300,506,1296
stim,1806,1806,0,202871.369,-0.875,-0.100,-0.014,0.474,2840,98,72,3363,0,765,104,3964,42,0.000,4,0,47.162,1.335,9.020,10.260,45.140,-0.122,-0.186,0.939,-0.410,1.270,1.342,0.000,0.000,0.175,0.124,2,2,0,3,7,255,1296,300,511,1296
stim,1806,1806,0,202876.369,-0.874,-0.100,-0.013,0.474,2843,103,71,3351,0,793,111,3967,42,0.000,4,0,28.215,1.566,3.580,14.660,23.840,-0.089,-0.278,0.809,0.916,1.270,-0.768,0.000,0.000,0.175,0.124,2,2,0,3,7,255,1296,300,516,1296
stim,1806,1806,0,202881.369,-0.874,-0.101,-0.014,0.475,2837,88,73,3352,0,812,91,3982,42,0.000,4,0,21.333,1.966,-17.340,11.680,4.240,-0.120,-0.363,0.812,1.868,0.612,-1.608,0.000,0.000,0.175,0.124,2,2,0,3,7,255,1296,300,521,1296
stim,1871,1871,0,202886.369,-0.874,-0.103,-0.014,0.475,2843,111,91,3356,40,797,115,3980,42,0.000,4,0,35.318,1.869,-34.340,4.340,-7.020,-0.209,-0.344,0.847,1.868,-0.044,-1.608,0.000,0.000,0.175,0.124,2,2,0,3,7,255,1296,300,526,1296
stim,1871,1871,0,202891.369,-0.874,-0.104,-0.015,0.475,2845,101,89,3364,13,814,101,3989,42,0.000,4,0,44.112,1.725,-42.760,6.240,-8.860,-0.295,-0.247,0.947,1.702,-0.282,-1.072,0.000,0.000,0.175,0.124,2,2,0,3,7,255,1296,300,531,1296
stim,1871,1871,0,202896.369,-0.874,-0.106,-0.015,0.475,2855,103,91,3364,0,803,109,4016,42,0.000,4,0,39.611,0.491,-39.340,4.040,-2.260,-0.325,-0.187,1.018,0.402,-0.282,-0.100,0.000,0.000,0.175,0.124,2,2,0,3,7,255,1296,300,536,1296
stim,1871,1871,0,202901.369,-0.873,-0.107,-0.016,0.475,2861,99,78,3367,0,784,79,4003,42,0.000,4,0,27.820,0.074,-26.700,4.280,6.540,-0.322,-0.212,1.028,-0.074,0.008,0.504,0.000,0.000,0.175,0.124,2,2,0,3,7,255,1296,300,541,1296
stim,1871,1871,0,202906.369,-0.873,-0.107,-0.016,0.476,2869,81,76,3371,0,786,91,4015,42,0.000,4,0,20.868,0.074,-15.720,4.400,13.000,-0.301,-0.233,0.984,-0.074,0.008,0.504,0.000,0.000,0.175,0.124,2,2,0,3,7,255,1296,300,546,1296
stim,1871,1871,0,202911.369,-0.872,-0.108,-0.016,0.476,2893,103,88,3381,0,787,88,4003,42,0.000,4,0,20.993,0.224,-13.760,3.600,15.440,-0.271,-0.247,0.923,0.208,-0.082,0.224,0.000,0.000,0.175,0.124,2,2,0,3,7,255,1296,300,551,1296
stim,1871,1871,0,202916.369,-0.872,-0.108,-0.016,0.477,2905,127,75,3389,47,786,109,4091,42,0.000,4,0,20.565,0.503,-15.360,3.420,13.240,-0.249,-0.250,0.896,0.496,-0.082,-0.388,0.000,0.000,0.175,0.124,2,2,0,3,7,255,1296,300,556,1296
stim,1871,1871,0,202921.369,-0.872,-0.109,-0.016,0.478,2923,107,61,3399,35,791,103,4095,42,0.000,4,0,24.247,0.499,-22.260,1.340,9.520,-0.242,-0.207,0.899,0.496,-0.056,-0.684,0.000,0.000,0.175,0.124,2,2,0,3,7,255,1296,300,561,1296
stim,1871,1871,0,202926.369,-0.871,-0.110,-0.017,0.478,2925,123,81,3405,33,861,99,4095,42,0.000,4,0,27.045,0.402,-26.220,-0.600,6.600,-0.246,-0.177,0.921,0.322,0.240,-0.684,0.000,0.000,0.175,0.124,2,2,0,3,7,255,1296,300,566,1296
stim,1871,1871,0,202931.369,-0.871,-0.110,-0.017,0.478,2942,127,91,3413,59,863,109,4095,42,0.000,4,0,26.196,0.445,-25.600,-0.780,5.500,-0.261,-0.152,0.958,0.034,0.444,-0.624,0.000,0.000,0.175,0.124,2,2,0,3,7,255,1296,300,571,1296
stim,1871,1871,0,202936.369,-0.871,-0.111,-0.018,0.479,2955,101,75,3433,55,937,147,4095,42,0.000,4,0,23.719,0.648,-23.000,-1.160,5.680,-0.271,-0.126,0.959,-0.268,0.590,-0.310,0.000,0.000,0.175,0.124,2,2,0,3,7,255,1296,300,576,1296
stim,1871,1871,0,202941.369,-0.870,-0.111,-0.018,0.479,2973,119,74,3436,55,939,168,4095,42,0.000,4,0,21.800,0.804,-20.320,-1.460,7.760,-0.278,-0.123,0.949,-0.546,0.590,-0.310,0.000,0.000,0.175,0.124,2,2,0,3,7,255,1296,300,581,1296
stim,1872,1872,0,202946.370,-0.870,-0.112,-0.018,0.480,2987,113,89,3437,56,1029,185,4095,42,0.000,4,0,21.737,0.799,-18.860,-1.520,10.700,-0.286,-0.138,0.939,-0.546,0.584,-0.392,0.000,0.000,0.175,0.124,2,2,0,3,7,255,1296,300,586,1296
stim,1872,1872,0,202951.369,-0.870,-0.112,-0.018,0.480,3007,79,71,3446,59,1015,211,4095,42,0.000,4,0,23.593,0.689,-19.960,-2.440,12.340,-0.281,-0.167,0.932,-0.546,0.420,-0.428,0.000,0.000,0.175,0.124,2,2,0,3,7,255,1296,300,591,1296
stim,1903,1903,0,202956.369,-0.869,-0.113,-0.019,0.481,3017,141,53,3453,67,1100,199,4095,42,0.000,4,0,24.650,0.506,-21.180,-2.300,12.400,-0.283,-0.155,0.922,-0.404,0.304,-0.448,0.000,0.000,0.175,0.124,2,2,0,3,7,255,1296,300,596,1296
stim,1903,1903,0,202961.369,-0.869,-0.113,-0.019,0.482,3099,123,53,3477,71,1195,203,4095,42,0.000,4,0,26.994,0.453,-23.560,-2.680,12.900,-0.274,-0.159,0.927,-0.336,0.304,-0.530,0.000,0.000,0.175,0.124,2,2,0,3,7,255,1296,300,601,1296
stim,1903,1903,0,202966.369,-0.868,-0.114,-0.020,0.482,3115,139,56,3467,56,1211,226,4095,42,0.000,4,0,30.777,0.506,-28.120,-2.380,12.280,-0.259,-0.167,0.958,-0.336,0.378,-0.530,0.000,0.000,0.175,0.124,2,2,0,3,7,255,1296,300,606,1296
stim,1903,1903,0,202971.369,-0.868,-0.114,-0.020,0.483,3158,150,70,3480,75,1210,221,4095,42,0.000,4,0,26.529,0.530,-24.340,-2.920,10.140,-0.256,-0.195,0.965,-0.216,0.484,-0.274,0.000,0.000,0.175,0.124,2,2,0,3,7,255,1296,300,611,1296
stim,1967,1967,0,202976.369,-0.868,-0.115,-0.020,0.483,3167,125,36,3481,55,1237,165,4095,42,0.000,4,0,23.979,0.605,-22.820,-0.600,7.340,-0.261,-0.173,0.972,-0.204,0.570,-0.152,0.000,0.000,0.175,0.124,2,2,0,3,7,255,1296,300,616,1296
stim,1967,1967,0,202981.369,-0.867,-0.116,-0.021,0.484,3178,116,29,3481,47,1209,180,4095,42,0.000,4,0,21.909,0.484,-21.180,-1.940,5.260,-0.263,-0.209,0.962,0.016,0.484,-0.130,0.000,0.000,0.175,0.124,2,2,0,3,7,255,1296,300,621,1296
stim,1967,1967,0,202986.369,-0.867,-0.116,-0.021,0.484,3191,133,35,3487,47,1240,183,4095,42,0.000,4,0,18.964,0.374,-18.660,-0.060,3.380,-0.270,-0.223,0.954,0.078,0.366,-0.130,0.000,0.000,0.175,0.124,2,2,0,3,7,255,1296,300,626,1296
stim,1967,1967,0,202991.369,-0.867,-0.117,-0.022,0.484,3213,138,30,3493,58,1244,183,4095,42,0.000,4,0,18.782,0.262,-18.600,0.380,2.580,-0.271,-0.238,0.964,0.142,0.220,-0.130,0.000,0.000,0.175,0.124,2,2,0,3,7,255,1296,300,631,1296
stim,1967,1967,0,202996.369,-0.867,-0.117,-0.022,0.484,3208,151,31,3491,64,1278,183,4095,42,0.000,4,0,18.170,0.307,-17.760,-1.580,3.500,-0.269,-0.256,0.964,0.244,0.186,-0.028,0.000,0.000,0.175,0.124,2,2,0,3,7,255,1296,300,636,1296
stim,1967,1967,0,203001.369,-0.867,-0.118,-0.022,0.485,3208,116,43,3493,64,1293,207,4095,42,0.000,4,0,16.758,0.407,-16.220,-2.620,3.300,-0.270,-0.270,0.953,0.390,0.118,-0.028,0.000,0.000,0.175,0.124,2,2,0,3,7,255,1296,300,641,1296
stim,1967,1967,0,203006.369,-0.866,-0.118,-0.023,0.485,3209,108,42,3488,77,1250,205,4095,42,0.000,4,0,15.180,0.460,-14.700,-1.580,3.440,-0.269,-0.267,0.949,0.460,0.016,-0.058,0.000,0.000,0.175,0.124,2,2,0,3,7,255,1296,300,646,1296
stim,1967,1967,0,203011.369,-0.866,-0.118,-0.023,0.485,3195,78,55,3494,116,1287,208,4095,42,0.000,4,0,14.211,0.460,-13.540,-0.900,4.220,-0.267,-0.253,0.952,0.460,0.016,-0.108,0.000,0.000,0.175,0.124,2,2,0,3,7,255,1296,300,651,1296
stim,1967,1967,0,203016.369,-0.866,-0.119,-0.023,0.485,3114,155,55,3499,109,1259,211,4095,42,0.000,4,0,15.342,0.371,-13.600,-2.620,6.600,-0.260,-0.248,0.958,0.352,0.116,-0.108,0.000,0.000,0.175,0.124,2,2,0,3,7,255,1296,300,656,1296
stim,1967,1967,0,203021.369,-0.866,-0.119,-0.024,0.486,3114,119,115,3511,101,1255,214,4095,42,0.000,4,1,14.828,0.413,-11.960,-3.840,7.880,-0.250,-0.249,0.954,0.352,0.216,-0.118,0.000,0.000,0.175,0.124,2,2,0,3,7,255,1296,300,661,1296
stim,1967,1967,0,203026.369,-0.865,-0.119,-0.024,0.486,3178,154,107,3515,123,1337,229,4095,42,0.000,4,1,12.614,0.429,-10.000,-2.800,7.160,-0.249,-0.242,0.951,0.332,0.272,-0.154,0.000,0.000,0.175,0.124,2,2,0,3,7,255,1296,300,666,1296
stim,1967,1967,0,203031.369,-0.865,-0.119,-0.025,0.486,3213,147,150,3515,101,1329,239,4095,42,0.000,4,1,11.132,0.430,-8.720,-3.340,6.060,-0.252,-0.239,0.950,0.326,0.280,-0.198,0.000,0.000,0.175,0.124,2,2,0,3,7,255,1296,300,671,1296
stim,1968,1968,0,203036.369,-0.865,-0.119,-0.025,0.487,3221,127,121,3525,103,1369,240,4095,42,0.000,4,1,9.996,0.392,-7.840,-3.220,5.300,-0.264,-0.229,0.938,0.274,0.280,-0.198,0.000,0.000,0.175,0.124,2,2,0,3,7,255,1296,300,676,1296
stim,1968,1968,0,203041.369,-0.865,-0.119,-0.025,0.487,3134,157,184,3516,92,1321,240,4095,42,0.000,4,1,11.438,0.232,-8.760,-3.760,6.320,-0.271,-0.221,0.938,0.128,0.194,-0.294,0.000,0.000,0.175,0.124,2,2,0,3,7,255,1296,300,681,1296
stim,1998,1998,0,203046.369,-0.865,-0.119,-0.025,0.487,3148,106,191,3526,93,1379,247,4095,42,0.000,4,1,12.726,0.195,-9.420,-4.260,7.420,-0.272,-0.205,0.930,0.024,0.194,-0.300,0.000,0.000,0.175,0.124,2,2,0,3,7,255,1296,300,686,1296
stim,1998,1998,0,203051.369,-0.865,-0.119,-0.026,0.488,3160,139,250,3531,101,1393,236,4095,42,0.000,4,1,13.745,0.232,-9.800,-4.020,8.760,-0.268,-0.198,0.931,-0.114,0.202,-0.400,0.000,0.000,0.175,0.124,2,2,0,3,7,255,1296,300,691,1296
stim,1998,1998,0,203056.369,-0.864,-0.118,-0.026,0.488,3158,128,269,3529,93,1427,262,4095,42,0.000,4,1,15.300,0.305,-10.960,-3.400,10.120,-0.258,-0.188,0.940,-0.146,0.268,-0.400,0.000,0.000,0.175,0.124,2,2,0,3,7,255,1296,300,696,1296
stim,1998,1998,0,203061.369,-0.864,-0.118,-0.026,0.489,3165,121,285,3532,99,1421,292,4095,42,0.000,4,1,15.577,0.451,-10.720,-4.080,10.540,-0.253,-0.179,0.938,-0.178,0.414,-0.410,0.000,0.000,0.175,0.124,2,2,0,3,7,255,1296,300,701,1296
stim,2081,2081,0,203066.369,-0.864,-0.118,-0.026,0.489,3175,102,329,3539,217,1403,309,4095,42,0.000,4,1,15.404,0.520,-10.780,-4.320,10.120,-0.249,-0.176,0.927,-0.214,0.474,-0.422,0.000,0.000,0.175,0.124,2,2,0,3,7,255,1296,300,706,1296
stim,2081,2081,0,203071.369,-0.864,-0.118,-0.026,0.489,3175,156,377,3531,210,1381,325,4095,42,0.000,4,1,14.860,0.520,-11.820,-2.920,8.520,-0.241,-0.171,0.924,-0.214,0.474,-0.534,0.000,0.000,0.175,0.124,2,2,0,3,7,255,1296,300,711,1296
stim,2083,2083,0,203076.369,-0.863,-0.117,-0.027,0.490,3192,109,384,3543,212,1379,329,4095,42,0.000,4,1,15.462,0.579,-13.520,-2.540,7.060,-0.238,-0.170,0.927,-0.210,0.540,-0.570,0.000,0.000,0.175,0.124,2,2,0,3,7,255,1296,300,716,1296
stim,2083,2083,0,203081.369,-0.863,-0.117,-0.027,0.490,3197,83,492,3540,173,1395,329,4095,42,0.000,4,1,17.173,0.579,-15.600,-3.820,6.080,-0.241,-0.175,0.926,-0.208,0.540,-0.570,0.000,0.000,0.175,0.124,2,2,0,3,7,255,1296,300,721,1296
stim,2083,2083,0,203086.369,-0.863,-0.117,-0.027,0.490,3209,101,438,3544,138,1419,339,4095,42,0.000,4,1,17.646,0.538,-16.500,-3.160,5.400,-0.243,-0.181,0.932,-0.178,0.508,-0.550,0.000,0.000,0.175,0.124,2,2,0,3,7,255,1296,300,726,1296
stim,2083,2083,0,203091.369,-0.863,-0.117,-0.028,0.491,3213,127,491,3546,84,1379,338,4095,42,0.000,4,1,18.210,0.495,-17.220,-2.560,5.340,-0.246,-0.188,0.942,-0.150,0.472,-0.476,0.000,0.000,0.175,0.124,2,2,0,3,7,255,1296,300,731,1296
stim,2083,2083,0,203096.369,-0.863,-0.117,-0.028,0.491,3219,89,532,3558,98,1289,339,4095,42,0.000,4,1,18.818,0.460,-17.780,-2.860,5.460,-0.245,-0.201,0.943,-0.114,0.446,-0.354,0.000,0.000,0.175,0.124,2,2,0,3,7,255,1296,300,736,1296
stim,2083,2083,0,203101.369,-0.862,-0.118,-0.029,0.491,3232,159,559,3560,117,1304,343,4095,42,0.000,4,1,18.950,0.390,-18.200,-2.240,4.780,-0.247,-0.213,0.936,-0.016,0.390,-0.340,0.000,0.000,0.175,0.124,2,2,0,3,7,255,1296,300,741,1296
stim,2084,2084,0,203106.369,-0.862,-0.118,-0.029,0.492,3239,207,653,3549,153,1291,363,4095,42,0.000,4,1,20.676,0.299,-20.100,-2.120,4.360,-0.246,-0.221,0.931,0.064,0.292,-0.340,0.000,0.000,0.175,0.124,2,2,0,3,7,255,1296,300,746,1296
stim,2084,2084,0,203111.370,-0.862,-0.119,-0.030,0.492,3255,241,692,3563,159,1309,375,4095,42,0.000,4,1,22.809,0.277,-22.280,-1.460,4.660,-0.248,-0.228,0.937,0.124,0.248,-0.340,0.000,0.000,0.175,0.124,2,2,0,3,7,255,1296,300,751,1296
stim,2084,2084,0,203116.369,-0.862,-0.119,-0.030,0.492,3254,230,745,3559,163,1336,373,4095,42,0.000,4,1,23.674,0.277,-23.140,-1.460,4.780,-0.251,-0.221,0.943,0.124,0.248,-0.288,0.000,0.000,0.175,0.124,2,2,0,3,7,255,1296,300,756,1296
stim,2084,2084,0,203121.369,-0.861,-0.120,-0.031,0.493,3269,235,767,3557,150,1322,423,4095,42,0.000,4,1,22.823,0.230,-22.220,-0.720,5.160,-0.256,-0.227,0.946,0.066,0.220,-0.236,0.000,0.000,0.175,0.124,2,2,0,3,7,255,1296,300,761,1296
stim,2088,2088,0,203126.369,-0.861,-0.120,-0.031,0.493,3263,223,829,3561,157,1285,375,4095,42,0.000,4,1,23.252,0.257,-22.420,0.560,6.140,-0.258,-0.218,0.954,0.058,0.250,-0.184,0.000,0.000,0.175,0.124,2,2,0,3,7,255,1296,300,766,1296
stim,2088,2088,0,203131.369,-0.861,-0.121,-0.031,0.493,3282,229,857,3565,181,1327,390,4095,42,0.000,4,1,22.573,0.232,-21.560,-0.300,6.680,-0.255,-0.227,0.950,0.054,0.226,-0.150,0.000,0.000,0.175,0.124,2,2,0,3,7,255,1296,300,771,1296
stim,2089,2089,0,203136.369,-0.861,-0.121,-0.032,0.494,3283,238,871,3562,187,1323,404,4095,42,0.000,4,1,22.250,0.233,-21.100,1.180,6.960,-0.254,-0.228,0.949,0.050,0.228,-0.150,0.000,0.000,0.175,0.124,2,2,0,3,7,255,1296,300,776,1296
stim,2089,2089,0,203141.369,-0.860,-0.122,-0.032,0.494,3287,259,863,3561,155,1316,403,4095,42,0.000,4,1,21.506,0.233,-20.560,1.060,6.220,-0.250,-0.221,0.945,0.050,0.228,-0.156,0.000,0.000,0.175,0.124,2,2,0,3,7,255,1296,300,781,1296
stim,2090,2090,0,203146.369,-0.860,-0.122,-0.032,0.494,3289,251,873,3579,201,1337,410,4095,42,0.000,4,1,23.012,0.255,-22.200,1.540,5.860,-0.250,-0.223,0.940,0.020,0.254,-0.216,0.000,0.000,0.175,0.124,2,2,0,3,7,255,1296,300,786,1296
stim,2090,2090,0,203151.369,-0.860,-0.123,-0.033,0.495,3279,259,876,3567,216,1365,427,4095,42,0.000,4,1,24.191,0.254,-23.600,1.180,5.180,-0.252,-0.224,0.939,0.012,0.254,-0.254,0.000,0.000,0.175,0.124,2,2,0,3,7,255,1296,300,791,1296
stim,2094,2094,0,203156.369,-0.859,-0.123,-0.033,0.495,3283,264,880,3576,215,1384,404,4095,42,0.000,4,1,24.377,0.252,-23.860,1.300,4.820,-0.251,-0.226,0.941,0.014,0.252,-0.254,0.000,0.000,0.175,0.124,2,2,0,3,7,255,1296,300,796,1296
stim,2094,2094,0,203161.369,-0.859,-0.124,-0.033,0.495,3289,281,909,3562,225,1369,431,4095,42,0.000,4,1,25.659,0.252,-25.200,2.040,4.380,-0.245,-0.225,0.954,0.014,0.252,-0.230,0.000,0.000,0.175,0.124,2,2,0,3,7,255,1296,300,801,1296
stim,2110,2110,0,203166.370,-0.859,-0.125,-0.034,0.496,3290,293,925,3572,212,1380,429,4095,42,0.000,4,1,24.885,0.252,-24.580,0.880,3.780,-0.249,-0.232,0.943,0.014,0.252,-0.196,0.000,0.000,0.175,0.124,2,2,0,3,7,255,1296,300,806,1296
stim,2110,2110,0,203171.369,-0.859,-0.125,-0.034,0.496,3301,309,927,3588,207,1429,436,4095,42,0.000,4,1,22.416,0.254,-22.080,3.380,1.880,-0.251,-0.230,0.945,0.014,0.254,-0.178,0.000,0.000,0.175,0.124,2,2,0,3,7,255,1296,300,811,1296
stim,2110,2110,0,203176.369,-0.858,-0.126,-0.035,0.496,3303,317,927,3591,216,1419,467,4095,42,0.000,4,1,23.528,0.252,-23.120,3.800,2.140,-0.255,-0.237,0.953,0.030,0.250,-0.178,0.000,0.000,0.175,0.124,2,2,0,3,7,255,1296,300,816,1296
stim,2110,2110,0,203181.369,-0.858,-0.126,-0.035,0.496,3292,317,959,3571,208,1457,439,4095,42,0.000,4,1,20.801,0.224,-20.620,1.800,2.060,-0.259,-0.238,0.926,0.030,0.222,-0.178,0.000,0.000,0.175,0.124,2,2,0,3,7,255,1296,300,821,1296
stim,2174,2174,0,203186.369,-0.858,-0.127,-0.035,0.496,3287,317,949,3574,228,1466,459,4095,42,0.000,4,1,24.473,0.153,-23.940,4.040,3.080,-0.259,-0.236,0.935,0.030,0.150,-0.230,0.000,0.000,0.175,0.124,2,2,0,3,7,255,1296,300,826,1296
stim,2174,2174,0,203191.369,-0.858,-0.128,-0.036,0.497,3294,338,947,3575,229,1491,485,4095,42,0.000,4,1,22.391,0.112,-22.160,1.240,2.960,-0.256,-0.251,0.936,0.030,0.108,-0.230,0.000,0.000,0.175,0.124,2,2,0,3,7,255,1296,300,831,1296
stim,2174,2174,0,203196.369,-0.857,-0.128,-0.036,0.497,3303,355,949,3579,220,1479,480,4095,42,0.000,4,1,24.584,0.150,-24.060,3.300,3.820,-0.257,-0.237,0.942,-0.004,0.150,-0.192,0.000,0.000,0.175,0.124,2,2,0,3,7,255,1296,300,836,1296
stim,2174,2174,0,203201.369,-0.857,-0.129,-0.036,0.497,3303,347,982,3588,237,1485,501,4095,42,0.000,4,1,20.204,0.160,-19.960,1.180,2.900,-0.252,-0.266,0.941,0.118,0.108,-0.164,0.000,0.000,0.175,0.124,2,2,0,3,7,255,1296,300,841,1296
stim,2174,2174,0,203206.369,-0.857,-0.129,-0.036,0.497,3303,345,997,3587,242,1507,520,4095,42,0.000,4,1,18.043,0.141,-17.400,4.160,2.340,-0.264,-0.245,0.948,-0.018,0.140,-0.108,0.000,0.000,0.175,0.124,2,2,0,3,7,255,1296,300,846,1296
stim,2174,2174,0,203211.369,-0.857,-0.130,-0.037,0.498,3307,343,1004,3577,249,1545,479,4095,42,0.000,4,1,17.448,0.142,-16.680,3.560,3.680,-0.260,-0.248,0.949,0.022,0.140,-0.070,0.000,0.000,0.175,0.124,2,2,0,3,7,255,1296,300,851,1296
stim,2174,2174,0,203216.369,-0.857,-0.131,-0.037,0.498,3303,327,1020,3577,247,1501,485,4095,42,0.000,4,1,22.133,0.142,-21.560,1.660,4.720,-0.251,-0.298,0.925,0.022,0.140,-0.070,0.000,0.000,0.175,0.124,2,2,0,3,7,255,1296,300,856,1296
stim,2174,2174,0,203221.369,-0.856,-0.131,-0.037,0.498,3309,311,1027,3572,244,1567,470,4095,42,0.000,4,1,15.935,0.283,-15.640,1.960,2.340,-0.254,-0.278,0.937,0.280,0.044,-0.112,0.000,0.000,0.175,0.124,2,2,0,3,7,255,1296,300,861,1296
stim,2174,2174,0,203226.369,-0.856,-0.131,-0.038,0.498,3301,328,1036,3577,251,1515,487,4095,42,0.000,4,1,15.039,0.283,-14.600,2.640,2.460,-0.261,-0.268,0.964,0.280,0.044,-0.112,0.000,0.000,0.175,0.124,2,2,0,3,7,255,1296,300,866,1296
stim,2174,2174,0,203231.369,-0.856,-0.132,-0.038,0.498,3303,338,1049,3577,261,1523,501,4095,42,0.000,4,1,14.797,0.184,-14.180,2.080,3.680,-0.259,-0.254,0.954,0.124,0.136,-0.010,0.000,0.000,0.175,0.124,2,2,0,3,7,255,1296,300,871,1296
stim,2174,2174,0,203236.369,-0.856,-0.132,-0.038,0.499,3309,347,1049,3587,256,1547,525,4095,42,0.000,4,1,16.497,0.184,-16.160,1.180,3.100,-0.244,-0.314,0.931,0.124,0.136,-0.010,0.000,0.000,0.175,0.124,2,2,0,3,7,255,1296,300,876,1296
stim,2174,2174,0,203241.370,-0.856,-0.133,-0.039,0.499,3313,341,1053,3590,254,1544,520,4095,42,0.000,4,1,10.998,0.247,-10.920,1.300,-0.120,-0.257,-0.282,0.945,0.242,0.050,-0.020,0.000,0.000,0.175,0.124,2,2,0,3,7,255,1296,300,881,1296
stim,2174,2174,0,203246.369,-0.856,-0.133,-0.039,0.499,3303,344,1052,3590,253,1543,487,4095,42,0.000,4,1,9.787,0.242,-9.700,0.700,1.100,-0.276,-0.271,0.959,0.242,0.002,-0.020,0.000,0.000,0.175,0.124,2,2,0,3,7,255,1296,300,886,1296
stim,2174,2174,0,203251.369,-0.856,-0.133,-0.039,0.499,3305,365,1055,3595,255,1555,461,4095,42,0.000,4,1,7.864,0.040,-7.120,0.880,3.220,-0.276,-0.271,0.956,0.040,0.002,0.094,0.000,0.000,0.175,0.124,2,2,0,3,7,255,1296,300,891,1296
stim,2206,2206,0,203256.369,-0.855,-0.133,-0.039,0.499,3303,363,1071,3577,261,1603,471,4095,42,0.000,4,1,6.576,0.040,-4.880,0.500,4.380,-0.262,-0.282,0.952,0.040,0.002,0.094,0.000,0.000,0.175,0.124,2,2,0,3,7,255,1296,300,896,1296
stim,2206,2206,0,203261.369,-0.855,-0.133,-0.039,0.499,3316,349,1060,3593,247,1625,444,4095,42,0.000,4,1,8.969,0.199,-7.800,0.640,4.380,-0.254,-0.275,0.931,0.196,0.034,0.054,0.000,0.000,0.175,0.124,2,2,0,3,7,255,1296,300,901,1296
stim,2206,2206,0,203266.369,-0.855,-0.133,-0.039,0.499,3310,358,1061,3577,243,1619,475,4095,42,0.000,4,1,6.771,0.205,-6.580,-0.220,1.580,-0.241,-0.319,0.933,0.202,0.034,-0.070,0.000,0.000,0.175,0.124,2,2,0,3,7,255,1296,300,906,1296
stim,2206,2206,0,203271.369,-0.855,-0.133,-0.040,0.500,3302,347,1079,3577,247,1642,481,4095,42,0.000,4,1,7.014,0.203,-7.000,0.320,0.300,-0.262,-0.257,0.941,0.196,0.054,-0.110,0.000,0.000,0.175,0.124,2,2,0,3,7,255,1296,300,911,1296
stim,2255,2255,0,203276.369,-0.855,-0.133,-0.040,0.500,3296,351,1092,3576,252,1643,471,4095,42,0.000,4,1,4.802,0.104,-4.620,-0.280,1.280,-0.271,-0.263,0.965,-0.018,0.102,-0.070,0.000,0.000,0.175,0.124,2,2,0,3,7,255,1296,300,916,1296
stim,2255,2255,0,203281.369,-0.855,-0.133,-0.040,0.500,3305,360,1102,3579,255,1626,471,4095,42,0.000,4,1,3.458,0.119,-1.400,-0.100,3.160,-0.269,-0.256,0.961,-0.034,0.114,0.090,0.000,0.000,0.175,0.124,2,2,0,3,7,255,1296,300,921,1296
stim,2271,2271,0,203286.369,-0.855,-0.133,-0.040,0.500,3315,360,1115,3591,253,1640,476,4095,42,0.000,4,1,3.943,0.108,0.660,-0.240,3.880,-0.256,-0.269,0.942,-0.034,0.102,0.090,0.000,0.000,0.175,0.124,2,2,0,3,7,255,1296,300,926,1296
stim,2271,2271,0,203291.369,-0.855,-0.132,-0.040,0.500,3296,359,1132,3591,263,1647,479,4095,42,0.000,4,1,2.868,0.159,0.360,-0.180,2.840,-0.244,-0.278,0.932,0.118,0.106,-0.080,0.000,0.000,0.175,0.124,2,2,0,3,7,255,1296,300,931,1296
stim,2271,2271,0,203296.369,-0.855,-0.132,-0.040,0.500,3308,367,1133,3578,263,1623,481,4095,42,0.000,4,1,0.992,0.204,-0.680,-0.180,0.700,-0.246,-0.269,0.933,0.174,0.106,-0.182,0.000,0.000,0.175,0.124,2,2,0,3,7,255,1296,300,936,1296
stim,2271,2271,0,203301.369,-0.855,-0.132,-0.040,0.500,3315,374,1158,3568,253,1645,478,4095,42,0.000,4,1,1.053,0.204,-1.040,-0.040,-0.160,-0.260,-0.261,0.946,0.174,0.106,-0.182,0.000,0.000,0.175,0.124,2,2,0,3,7,255,1296,300,941,1296
stim,2271,2271,0,203306.369,-0.855,-0.132,-0.040,0.500,3303,356,1142,3576,255,1670,501,837,42,0.000,4,1,0.793,0.102,0.360,-0.100,0.700,-0.266,-0.255,0.953,0.028,0.098,-0.056,0.000,0.000,0.175,0.124,2,2,0,3,7,255,1296,300,946,1296
stim,2271,2271,0,203311.369,-0.855,-0.131,-0.040,0.500,3301,351,1135,3570,262,1677,507,842,42,0.000,4,1,2.736,0.094,1.880,-0.180,1.980,-0.262,-0.258,0.947,-0.002,0.094,-0.050,0.000,0.000,0.175,0.124,2,2,0,3,7,255,1296,300,951,1296
stim,2272,2272,0,203316.369,-0.855,-0.131,-0.040,0.500,3303,364,1147,3577,260,1671,521,877,42,0.000,4,1,3.380,0.090,2.420,-0.300,2.340,-0.254,-0.261,0.936,-0.002,0.090,-0.050,0.000,0.000,0.175,0.124,2,2,0,3,7,255,1296,300,956,1296
stim,2272,2272,0,203321.369,-0.855,-0.131,-0.040,0.500,3292,389,1139,3590,253,1679,519,875,42,0.000,4,1,2.539,0.117,1.880,-0.300,1.680,-0.247,-0.261,0.930,0.074,0.090,-0.156,0.000,0.000,0.175,0.124,2,2,0,3,7,255,1296,300,961,1296
stim,2273,2273,0,203326.369,-0.855,-0.130,-0.040,0.500,3299,405,1157,3579,249,1674,536,901,42,0.000,4,1,1.568,0.142,1.400,-0.300,0.640,-0.249,-0.258,0.934,0.082,0.116,-0.192,0.000,0.000,0.175,0.124,2,2,0,3,7,255,1296,300,966,1296
stim,2273,2273,0,203331.369,-0.855,-0.130,-0.040,0.500,3303,413,1159,3577,249,1683,538,904,42,0.000,4,1,0.893,0.149,0.240,0.260,0.820,-0.253,-0.234,0.927,0.082,0.124,-0.226,0.000,0.000,0.175,0.124,2,2,0,3,7,255,1296,300,971,1296
stim,2273,2273,0,203336.369,-0.855,-0.130,-0.040,0.500,3301,408,1151,3571,247,1685,539,889,42,0.000,4,1,1.456,0.149,0.000,1.160,0.880,-0.259,-0.269,0.946,0.082,0.124,-0.192,0.000,0.000,0.175,0.124,2,2,0,3,7,255,1296,300,976,1296
stim,2273,2273,0,203341.369,-0.855,-0.129,-0.040,0.500,3293,409,1145,3555,249,1691,538,891,42,0.000,4,1,2.681,0.136,2.200,-1.160,1.000,-0.254,-0.248,0.940,-0.022,0.134,-0.148,0.000,0.000,0.175,0.124,2,2,0,3,7,255,1296,300,981,1296
stim,2286,2286,0,203346.369,-0.855,-0.129,-0.039,0.500,3290,392,1161,3561,251,1690,552,893,42,0.000,4,1,3.266,0.136,3.060,-0.060,1.140,-0.252,-0.244,0.943,-0.022,0.134,-0.134,0.000,0.000,0.175,0.124,2,2,0,3,7,255,1296,300,986,1296
stim,2286,2286,0,203351.369,-0.855,-0.129,-0.039,0.500,3301,409,1165,3567,235,1695,553,877,42,0.000,4,1,3.641,0.167,3.300,-0.680,1.380,-0.249,-0.241,0.934,-0.034,0.164,-0.148,0.000,0.000,0.175,0.124,2,2,0,3,7,255,1296,300,991,1296
stim,2286,2286,0,203356.369,-0.855,-0.128,-0.039,0.500,3294,409,1144,3557,239,1698,541,875,42,0.000,4,1,3.209,0.167,3.000,-0.360,1.080,-0.249,-0.245,0.932,-0.034,0.164,-0.232,0.000,0.000,0.175,0.124,2,2,0,3,7,255,1296,300,996,1296
stim,2286,2286,0,203361.369,-0.856,-0.128,-0.039,0.500,3303,437,1144,3561,235,1701,542,872,42,0.000,4,1,2.657,0.147,2.500,-0.480,0.760,-0.249,-0.241,0.934,-0.020,0.146,-0.232,0.000,0.000,0.175,0.124,2,2,0,3,7,255,1296,300,1001,1296
stim,2350,2350,0,203366.369,-0.856,-0.127,-0.039,0.500,3297,438,1146,3557,224,1701,542,877,42,0.000,4,1,2.361,0.135,2.260,-0.360,0.580,-0.252,-0.242,0.934,-0.020,0.134,-0.220,0.000,0.000,0.175,0.124,2,2,0,3,7,255,1296,300,1006,1296
stim,2350,2350,0,203371.369,-0.856,-0.127,-0.039,0.500,3285,440,1133,3548,220,1701,547,867,42,0.000,4,1,2.618,0.126,2.560,-0.180,0.520,-0.249,-0.247,0.938,-0.020,0.124,-0.208,0.000,0.000,0.175,0.124,2,2,0,3,7,255,1296,300,1011,1296
stim,2350,2350,0,203376.369,-0.856,-0.126,-0.039,0.500,3288,440,1120,3560,221,1711,553,889,42,0.000,4,1,2.737,0.118,2.680,-0.480,0.280,-0.253,-0.235,0.933,-0.022,0.116,-0.208,0.000,0.000,0.175,0.124,2,2,0,3,7,255,1296,300,1016,1296
stim,2350,2350,0,203381.369,-0.856,-0.126,-0.039,0.500,3289,446,1129,3547,187,1709,558,932,42,0.000,4,1,2.752,0.117,2.620,-0.360,0.760,-0.257,-0.248,0.931,0.018,0.116,-0.200,0.000,0.000,0.175,0.124,2,2,0,3,7,255,1296,300,1021,1296
stim,2350,2350,0,203386.369,-0.856,-0.126,-0.039,0.500,3289,446,1167,3555,221,1705,557,849,42,0.000,4,1,2.603,0.049,2.100,-0.340,1.500,-0.255,-0.242,0.930,-0.016,0.046,-0.226,0.000,0.000,0.175,0.124,2,2,0,3,7,255,1296,300,1026,1296
stim,2350,2350,0,203391.369,-0.856,-0.125,-0.039,0.500,3297,444,1189,3544,219,1704,566,811,42,0.000,4,1,2.535,0.049,1.660,-0.460,1.860,-0.251,-0.246,0.932,0.018,0.046,-0.214,0.000,0.000,0.175,0.124,2,2,0,3,7,255,1296,300,1031,1296
stim,2350,2350,0,203396.369,-0.856,-0.125,-0.039,0.500,3279,442,1195,3541,223,1709,563,811,42,0.000,4,1,2.439,0.072,1.540,-0.340,1.860,-0.249,-0.244,0.934,0.032,0.064,-0.214,0.000,0.000,0.175,0.124,2,2,0,3,7,255,1296,300,1036,1296
stim,2350,2350,0,203401.369,-0.856,-0.125,-0.039,0.500,3291,441,1210,3539,219,1703,559,830,42,0.000,4,1,2.354,0.092,1.600,-0.400,1.680,-0.248,-0.244,0.932,0.038,0.084,-0.214,0.000,0.000,0.175,0.124,2,2,0,3,7,255,1296,300,1041,1296
stim,2382,2382,0,203406.369,-0.856,-0.124,-0.039,0.500,3289,442,1226,3543,214,1691,565,813,42,0.000,4,1,2.060,0.097,1.660,-0.220,1.200,-0.248,-0.238,0.932,0.032,0.092,-0.216,0.000,0.000,0.175,0.124,2,2,0,3,7,255,1296,300,1046,1296
stim,2382,2382,0,203411.369,-0.856,-0.124,-0.039,0.500,3293,447,1167,3555,215,1687,560,839,42,0.000,4,1,1.873,0.084,1.180,-0.460,1.380,-0.254,-0.236,0.930,-0.002,0.084,-0.230,0.000,0.000,0.175,0.124,2,2,0,3,7,255,1296,300,1051,1296
stim,2382,2382,0,203416.369,-0.856,-0.124,-0.039,0.500,3289,440,1175,3557,213,1692,567,841,42,0.000,4,1,2.209,0.065,0.800,-0.280,2.040,-0.256,-0.235,0.930,-0.036,0.054,-0.234,0.000,0.000,0.175,0.124,2,2,0,3,7,255,1296,300,1056,1296
stim,2382,2382,0,203421.369,-0.856,-0.124,-0.038,0.500,3279,442,1171,3545,219,1685,567,840,42,0.000,4,1,2.418,0.058,0.260,-0.460,2.360,-0.255,-0.236,0.932,-0.038,0.044,-0.234,0.000,0.000,0.175,0.124,2,2,0,3,7,255,1296,300,1061,1296
stim,2382,2382,0,203426.369,-0.856,-0.123,-0.038,0.501,3289,427,1149,3555,218,1691,568,805,42,0.000,4,1,2.047,0.055,0.020,-0.520,1.980,-0.254,-0.242,0.933,-0.038,0.040,-0.214,0.000,0.000,0.175,0.124,2,2,0,3,7,255,1296,300,1066,1296
stim,2382,2382,0,203431.369,-0.856,-0.123,-0.038,0.501,3291,437,1173,3543,228,1684,569,790,42,0.000,4,1,1.464,0.027,-0.360,-0.520,1.320,-0.252,-0.248,0.931,0.016,0.022,-0.190,0.000,0.000,0.175,0.124,2,2,0,3,7,255,1296,300,1071,1296
stim,2382,2382,0,203436.369,-0.856,-0.123,-0.038,0.501,3285,410,1175,3549,229,1679,572,829,42,0.000,4,1,1.447,0.024,-1.100,-0.580,0.740,-0.253,-0.237,0.926,0.016,0.018,-0.190,0.000,0.000,0.175,0.124,2,2,0,3,7,255,1296,300,1076,1296
stim,2382,2382,0,203441.369,-0.856,-0.123,-0.038,0.501,3293,381,1159,3560,217,1689,573,823,42,0.000,4,1,4.440,0.006,-4.100,0.940,1.420,-0.264,-0.233,0.911,-0.006,0.002,-0.260,0.000,0.000,0.175,0.124,2,2,0,3,7,255,1296,300,1081,1296
stim,2382,2382,0,203446.370,-0.856,-0.123,-0.038,0.501,3283,398,1205,3554,221,1683,572,809,42,0.000,4,1,5.412,0.019,-5.380,0.580,0.060,-0.249,-0.259,0.948,-0.006,0.018,-0.260,0.000,0.000,0.175,0.124,2,2,0,3,7,255,1296,300,1086,1296
stim,2382,2382,0,203451.369,-0.856,-0.123,-0.039,0.501,3283,397,1198,3549,213,1677,571,797,42,0.000,4,1,4.995,0.082,-4.460,-2.240,0.200,-0.263,-0.235,0.935,-0.080,-0.018,-0.156,0.000,0.000,0.175,0.124,2,2,0,3,7,255,1296,300,1091,1296
stim,2382,2382,0,203456.369,-0.856,-0.123,-0.039,0.501,3286,397,1221,3541,213,1679,565,809,42,0.000,4,1,3.987,0.088,-3.600,-1.140,1.280,-0.251,-0.229,0.954,-0.080,0.036,-0.024,0.000,0.000,0.175,0.124,2,2,0,3,7,255,1296,300,1096,1296
stim,2382,2382,0,203461.369,-0.856,-0.122,-0.039,0.501,3283,398,1176,3544,242,1692,567,808,42,0.000,4,1,3.575,0.156,-3.000,-1.260,1.480,-0.249,-0.222,0.930,-0.092,0.126,-0.156,0.000,0.000,0.175,0.124,2,2,0,3,7,255,1296,300,1101,1296
stim,2416,2416,0,203466.369,-0.856,-0.122,-0.039,0.501,3279,405,1183,3557,205,1703,569,815,42,0.000,4,1,4.686,0.156,-4.160,-0.900,1.960,-0.244,-0.228,0.923,-0.092,0.126,-0.262,0.000,0.000,0.175,0.124,2,2,0,3,7,255,1296,300,1106,1296
stim,2416,2416,0,203471.369,-0.856,-0.122,-0.039,0.501,3289,463,1223,3558,213,1700,569,822,42,0.000,4,1,6.768,0.133,-6.180,-0.040,2.760,-0.258,-0.232,0.931,-0.072,0.112,-0.262,0.000,0.000,0.175,0.124,2,2,0,3,7,255,1296,300,1111,1296
stim,2416,2416,0,203476.369,-0.856,-0.122,-0.039,0.501,3276,476,1196,3547,208,1701,583,841,42,0.000,4,1,6.575,0.091,-5.800,-2.180,2.200,-0.245,-0.242,0.938,-0.030,0.086,-0.204,0.000,0.000,0.175,0.124,2,2,0,3,7,255,1296,300,1116,1296
stim,2416,2416,0,203481.369,-0.856,-0.122,-0.039,0.501,3279,489,1181,3547,217,1712,597,823,42,0.000,4,1,5.553,0.091,-5.380,-1.020,0.920,-0.241,-0.236,0.947,0.030,0.086,-0.140,0.000,0.000,0.175,0.124,2,2,0,3,7,255,1296,300,1121,1296
stim,2479,2479,0,203486.369,-0.856,-0.122,-0.039,0.501,3283,489,1212,3547,222,1709,587,810,42,0.000,4,1,5.151,0.091,-4.980,-1.260,-0.380,-0.246,-0.236,0.931,0.030,0.086,-0.140,0.000,0.000,0.175,0.124,2,2,0,3,7,255,1296,300,1126,1296
stim,2479,2479,0,203491.369,-0.856,-0.122,-0.039,0.501,3283,491,1239,3547,239,1716,570,821,42,0.000,4,1,6.225,0.073,-6.080,-1.260,-0.440,-0.253,-0.238,0.931,0.020,0.070,-0.188,0.000,0.000,0.175,0.124,2,2,0,3,7,255,1296,300,1131,1296
stim,2498,2498,0,203496.369,-0.856,-0.122,-0.039,0.501,3276,519,1225,3549,185,1718,548,816,42,0.000,4,1,7.647,0.006,-7.540,-0.900,0.900,-0.257,-0.228,0.925,-0.004,-0.004,-0.216,0.000,0.000,0.175,0.124,2,2,0,3,7,255,1296,300,1136,1296
stim,2498,2498,0,203501.369,-0.856,-0.122,-0.039,0.502,3281,531,1237,3547,201,1719,573,786,42,0.000,4,1,9.509,0.061,-8.760,-0.040,3.700,-0.276,-0.247,0.941,-0.060,-0.008,-0.188,0.000,0.000,0.175,0.124,2,2,0,3,7,255,1296,300,1141,1296
stim,2499,2499,1,203506.369,-0.855,-0.122,-0.040,0.502,3270,521,1245,3555,201,1717,587,829,42,0.000,4,1,8.788,0.061,-7.600,-2.660,3.520,-0.236,-0.252,0.947,-0.060,-0.008,-0.048,0.000,0.000,0.175,0.124,2,2,1,3,7,255,1296,300,1146,1296
stim,2499,2499,1,203511.369,-0.855,-0.122,-0.040,0.502,3271,520,1249,3545,216,1719,579,807,42,0.000,4,1,7.073,0.220,-6.860,-1.700,0.280,-0.227,-0.253,0.942,0.178,0.130,-0.048,0.000,0.000,0.175,0.124,2,2,1,3,7,255,1296,300,1151,1296
stim,2501,2501,1,203516.369,-0.855,-0.122,-0.041,0.502,3277,522,1277,3565,208,1719,575,781,42,0.000,4,1,8.163,0.220,-7.300,-1.760,-3.200,-0.238,-0.251,0.929,0.178,0.130,-0.116,0.000,0.000,0.175,0.124,2,2,1,3,7,255,1296,300,1156,1296
stim,2501,2501,1,203521.369,-0.855,-0.122,-0.041,0.502,3277,517,1272,3565,255,1719,585,778,42,0.000,4,1,9.686,0.162,-8.760,-1.760,-3.740,-0.255,-0.244,0.929,0.156,0.044,-0.180,0.000,0.000,0.175,0.124,2,2,1,3,7,255,1296,300,1161,1296
stim,2502,2502,1,203526.369,-0.855,-0.122,-0.041,0.502,3271,529,1275,3547,221,1737,567,807,42,0.000,4,1,10.671,0.058,-10.660,-0.480,0.100,-0.276,-0.229,0.927,0.002,-0.058,-0.180,0.000,0.000,0.175,0.124,2,2,1,3,7,255,1296,300,1166,1296
stim,2503,2503,1,203531.369,-0.855,-0.122,-0.041,0.502,3279,563,1327,3553,261,1757,579,871,42,0.000,4,1,10.498,0.105,-9.980,-2.180,2.420,-0.260,-0.239,0.955,-0.088,-0.058,-0.180,0.000,0.000,0.175,0.124,2,2,1,3,7,255,1296,300,1171,1296
stim,2510,2510,1,203536.369,-0.855,-0.122,-0.041,0.502,3261,581,1351,3545,247,1749,563,876,42,0.000,4,1,11.306,0.090,-10.100,-4.560,2.240,-0.224,-0.250,0.936,-0.088,0.020,-0.180,0.000,0.000,0.175,0.124,2,2,1,3,7,255,1296,300,1176,1296
stim,2510,2510,1,203541.369,-0.855,-0.122,-0.042,0.502,3277,571,1321,3559,243,1745,539,908,42,0.000,4,1,9.611,0.271,-9.120,-2.000,-2.280,-0.219,-0.252,0.941,0.202,0.180,-0.134,0.000,0.000,0.175,0.124,2,2,1,3,7,255,1296,300,1181,1296
stim,2510,2510,1,203546.369,-0.855,-0.122,-0.042,0.502,3255,638,1315,3567,232,1741,512,869,42,0.000,4,1,12.042,0.271,-11.560,-1.940,-2.760,-0.259,-0.239,0.917,0.202,0.180,-0.180,0.000,0.000,0.175,0.124,2,2,1,3,7,255,1296,300,1186,1296
