condition_phase,condition_phase_elapsed_ms,condition_elapsed_ms,is_stimulation_on,t_ms,L_q0,L_q1,L_q2,L_q3,L_heel1,L_mid1,L_fore1,L_heel2,L_fore3,L_mid2,L_fore4,L_fore2,L_cadence,L_speed,L_steps,L_zupt,L_gyroNorm,L_accH,L_gyro_x,L_gyro_y,L_gyro_z,L_acc_x,L_acc_y,L_acc_z,L_nav_ax,L_nav_ay,L_nav_az,L_stepVel,L_stepVelj,L_stepDispRaw,L_stepDispZUPT,L_gaitEvent,L_motorMode,L_motorActive,L_motorAlignment,L_motorRegionMask,L_motorAmplitude,L_motorIntervalMs,L_motorDurationMs,L_motorPhaseMs,L_motorCycleMs
stim,15,15,0,795733.829,0.991,0.052,-0.068,-0.102,2348,0,168,2464,109,925,27,619,1,0.000,3,0,0.177,0.008,0.100,0.140,-0.040,-0.151,-0.092,0.986,-0.002,0.008,0.000,0.000,0.000,0.000,0.000,1,2,0,3,7,255,1224,250,0,0
stim,15,15,0,795738.829,0.991,0.052,-0.068,-0.102,2350,0,172,2457,167,925,36,607,1,0.000,3,0,0.540,0.072,0.040,0.140,-0.520,-0.157,-0.099,0.990,-0.028,-0.066,0.008,0.000,0.000,0.000,0.000,1,2,0,3,7,255,1224,250,0,0
stim,31,31,0,795743.829,0.991,0.052,-0.068,-0.102,2345,0,167,2471,153,925,28,620,1,0.000,3,0,1.078,0.096,-0.080,-0.340,-1.020,-0.150,-0.097,0.994,-0.028,-0.092,0.046,0.000,0.000,0.000,0.000,1,2,0,3,7,255,1224,250,0,0
stim,31,31,0,795748.829,0.991,0.052,-0.068,-0.102,2335,0,173,2485,141,924,31,619,1,0.000,3,0,0.531,0.092,-0.080,-0.340,-0.400,-0.135,-0.077,0.987,0.006,-0.092,0.046,0.000,0.000,0.000,0.000,1,2,0,3,7,255,1224,250,0,0
stim,47,47,0,795753.829,0.991,0.052,-0.068,-0.102,2345,0,169,2459,135,927,30,597,1,0.000,3,0,1.277,0.141,0.160,0.260,1.240,-0.134,-0.070,0.979,0.080,0.116,-0.036,0.000,0.000,0.000,0.000,1,2,0,3,7,255,1224,250,0,0
stim,47,47,0,795758.829,0.991,0.052,-0.068,-0.102,2343,0,166,2473,139,923,29,616,1,0.000,3,0,0.961,0.141,0.220,0.620,0.700,-0.158,-0.098,0.987,0.080,0.116,-0.036,0.000,0.000,0.000,0.000,1,2,0,3,7,255,1224,250,0,0
stim,47,47,0,795763.829,0.991,0.052,-0.068,-0.102,2349,0,170,2471,135,923,27,623,1,0.000,3,0,2.250,0.136,-0.280,-0.480,-2.180,-0.157,-0.108,1.002,-0.026,-0.134,0.020,0.000,0.000,0.000,0.000,1,2,0,3,7,255,1224,250,0,0
stim,47,47,0,795768.829,0.991,0.052,-0.068,-0.102,2347,0,175,2476,124,922,27,627,1,0.000,3,0,0.964,0.136,-0.200,-0.900,-0.280,-0.121,-0.061,0.980,-0.026,-0.134,0.020,0.000,0.000,0.000,0.000,1,2,0,3,7,255,1224,250,0,0
stim,47,47,0,795773.829,0.991,0.052,-0.068,-0.102,2350,0,171,2476,103,929,31,621,1,0.000,3,0,3.813,0.084,0.580,1.540,3.440,-0.148,-0.076,0.974,-0.026,0.080,-0.130,0.000,0.000,0.000,0.000,1,2,0,3,7,255,1224,250,0,0
stim,47,47,0,795778.829,0.991,0.052,-0.068,-0.102,2349,0,168,2479,121,923,28,619,1,0.000,3,0,2.554,0.091,-0.260,-0.040,-2.540,-0.187,-0.138,1.014,-0.044,0.080,-0.130,0.000,0.000,0.000,0.000,1,2,0,3,7,255,1224,250,0,0
stim,63,63,0,795783.829,0.991,0.052,-0.068,-0.102,2357,0,173,2467,102,921,33,617,1,0.000,3,0,3.496,0.091,-0.760,-2.060,-2.720,-0.112,-0.062,0.984,-0.044,0.080,-0.104,0.000,0.000,0.000,0.000,1,2,0,3,7,255,1224,250,0,1224
stim,63,63,0,795788.830,0.991,0.052,-0.068,-0.102,2347,0,171,2473,111,923,27,621,1,0.000,3,0,6.027,0.276,1.260,2.220,5.460,-0.133,-0.056,0.956,0.034,0.274,-0.104,0.000,0.000,0.000,0.000,1,2,0,3,7,255,1224,250,3,1224
stim,63,63,0,795793.829,0.991,0.052,-0.068,-0.102,2347,1,175,2471,116,926,31,619,1,0.000,3,0,3.573,0.276,-0.580,0.200,-3.520,-0.192,-0.150,1.030,0.034,0.274,-0.104,0.000,0.000,0.000,0.000,1,2,0,3,7,255,1224,250,8,1224
stim,63,63,0,795798.829,0.991,0.052,-0.068,-0.102,2341,0,170,2473,117,923,27,624,1,0.000,3,0,3.234,0.276,-0.640,-3.040,-0.900,-0.106,-0.046,0.974,0.034,0.274,-0.224,0.000,0.000,0.000,0.000,1,2,0,3,7,255,1224,250,13,1224
stim,16,16,0,795803.829,0.991,0.052,-0.068,-0.102,2349,0,169,2464,103,924,30,619,1,0.000,3,0,5.451,0.183,1.740,3.800,3.500,-0.160,-0.093,0.962,-0.138,-0.120,-0.220,0.000,0.000,0.000,0.000,1,2,0,2,7,255,1224,300,18,1224
stim,16,16,0,795808.829,0.991,0.052,-0.068,-0.102,2345,0,172,2473,107,925,27,621,1,0.000,3,0,5.036,0.140,-1.920,-2.480,-3.940,-0.150,-0.107,1.034,0.072,-0.120,-0.220,0.000,0.000,0.000,0.000,1,2,0,2,7,255,1224,300,23,1224
stim,31,31,0,795813.829,0.991,0.052,-0.068,-0.102,2341,0,176,2465,115,922,28,627,1,0.000,3,0,3.514,0.126,1.680,0.200,3.080,-0.140,-0.059,0.945,-0.040,-0.120,-0.220,0.000,0.000,0.000,0.000,1,2,0,2,7,255,1224,300,28,1224
stim,31,31,0,795818.829,0.991,0.052,-0.068,-0.102,2347,0,173,2467,95,929,31,621,1,0.000,3,0,3.128,0.168,-0.760,1.660,-2.540,-0.149,-0.118,1.020,0.072,-0.152,0.338,0.000,0.000,0.000,0.000,1,2,0,2,7,255,1224,300,33,1224
stim,47,47,0,795823.829,0.991,0.052,-0.068,-0.102,2359,0,175,2464,117,923,37,618,1,0.000,3,0,3.560,0.224,0.280,-2.720,2.280,-0.145,-0.058,0.968,-0.040,0.220,-0.216,0.000,0.000,0.000,0.000,1,2,0,2,7,255,1224,300,38,1224
stim,47,47,0,795828.829,0.991,0.052,-0.068,-0.102,2348,0,170,2485,107,925,35,620,1,0.000,3,0,4.007,0.283,0.220,3.140,-2.480,-0.147,-0.119,1.001,0.084,-0.270,0.156,0.000,0.000,0.000,0.000,1,2,0,2,7,255,1224,300,43,1224
stim,47,47,0,795833.829,0.991,0.052,-0.068,-0.102,2347,0,173,2459,112,925,31,618,1,0.000,3,0,4.115,0.253,-0.460,-3.220,2.520,-0.142,-0.057,0.979,-0.018,0.252,-0.118,0.000,0.000,0.000,0.000,1,2,0,2,7,255,1224,300,48,1224
stim,47,47,0,795838.829,0.991,0.052,-0.068,-0.102,2355,0,170,2472,113,921,29,619,1,0.000,3,0,4.118,0.298,0.520,3.200,-2.540,-0.151,-0.118,0.993,0.034,-0.296,0.086,0.000,0.000,0.000,0.000,1,2,0,2,7,255,1224,300,53,1224
stim,84,84,0,795843.829,0.991,0.052,-0.068,-0.102,2341,0,173,2473,109,925,29,623,1,0.000,3,0,3.810,0.272,-0.280,-3.040,2.280,-0.141,-0.059,0.987,0.000,0.272,-0.036,0.000,0.000,0.000,0.000,1,2,0,2,7,255,1224,300,58,1224
stim,84,84,0,795848.829,0.991,0.052,-0.068,-0.102,2334,0,171,2461,107,927,29,623,1,0.000,3,0,3.324,0.242,0.280,2.640,-2.000,-0.150,-0.111,0.989,0.028,-0.240,0.040,0.000,0.000,0.000,0.000,1,2,0,2,7,255,1224,300,63,1224
stim,85,85,0,795853.829,0.991,0.052,-0.068,-0.102,2357,0,177,2464,120,919,35,618,1,0.000,3,0,2.590,0.132,-0.020,-2.240,1.300,-0.145,-0.072,0.986,0.000,0.132,-0.028,0.000,0.000,0.000,0.000,1,2,0,2,7,255,1224,300,68,1224
stim,85,85,0,795858.829,0.991,0.052,-0.068,-0.102,2348,0,175,2475,112,925,33,623,1,0.000,3,0,1.685,0.094,0.100,1.600,-0.520,-0.146,-0.096,0.989,0.028,-0.090,0.016,0.000,0.000,0.000,0.000,1,2,0,2,7,255,1224,300,73,1224
stim,85,85,0,795863.829,0.991,0.052,-0.068,-0.102,2347,0,170,2475,113,931,33,620,1,0.000,3,0,1.116,0.019,-0.020,-1.080,-0.280,-0.149,-0.087,0.989,-0.010,-0.016,0.014,0.000,0.000,0.000,0.000,1,2,0,2,7,255,1224,300,78,1224
stim,85,85,0,795868.829,0.991,0.052,-0.068,-0.102,2349,0,170,2481,115,924,35,628,1,0.000,3,0,1.014,0.038,0.460,0.380,0.820,-0.141,-0.081,0.985,0.034,-0.016,0.014,0.000,0.000,0.000,0.000,1,2,0,2,7,255,1224,300,83,1224
stim,112,112,0,795873.829,0.991,0.052,-0.068,-0.102,2344,0,172,2477,115,926,28,623,1,0.000,3,0,1.011,0.024,-0.460,0.020,-0.900,-0.154,-0.098,0.993,-0.018,-0.016,0.014,0.000,0.000,0.000,0.000,1,2,0,2,7,255,1224,300,88,1224
stim,112,112,0,795878.829,0.991,0.052,-0.068,-0.102,2347,0,168,2462,119,924,30,619,1,0.000,3,0,0.649,0.077,0.520,-0.220,0.320,-0.138,-0.079,0.982,0.048,0.060,-0.042,0.000,0.000,0.000,0.000,1,2,0,2,7,255,1224,300,93,1224
stim,112,112,0,795883.829,0.991,0.052,-0.068,-0.102,2351,0,173,2472,110,924,31,621,1,0.000,3,0,0.497,0.023,-0.020,0.320,0.380,-0.150,-0.086,0.991,-0.022,-0.008,0.034,0.000,0.000,0.000,0.000,1,2,0,2,7,255,1224,300,98,1224
stim,112,112,0,795888.829,0.991,0.052,-0.068,-0.102,2353,0,172,2477,110,917,27,617,1,0.000,3,0,0.735,0.022,-0.280,-0.160,-0.660,-0.147,-0.098,0.988,0.020,-0.008,0.016,0.000,0.000,0.000,0.000,1,2,0,2,7,255,1224,300,103,1224
stim,112,112,0,795893.829,0.991,0.052,-0.068,-0.102,2349,0,174,2475,111,925,27,626,1,0.000,3,0,0.816,0.022,0.640,0.080,0.500,-0.142,-0.076,0.984,0.020,-0.008,0.016,0.000,0.000,0.000,0.000,1,2,0,2,7,255,1224,300,108,1224
stim,112,112,0,795898.829,0.991,0.052,-0.068,-0.102,2353,0,179,2463,109,923,33,617,1,0.000,3,0,0.245,0.069,-0.200,0.020,0.140,-0.152,-0.093,0.994,0.020,-0.066,0.016,0.000,0.000,0.000,0.000,1,2,0,2,7,255,1224,300,113,1224
stim,112,112,0,795903.830,0.991,0.052,-0.068,-0.102,2343,0,172,2477,117,924,30,624,1,0.000,3,0,0.482,0.067,-0.140,-0.040,-0.460,-0.147,-0.093,0.986,0.014,-0.066,-0.012,0.000,0.000,0.000,0.000,1,2,0,2,7,255,1224,300,118,1224
stim,127,127,0,795908.829,0.991,0.052,-0.068,-0.102,2345,0,174,2475,115,924,31,621,1,0.000,3,0,0.530,0.067,0.460,-0.040,0.260,-0.141,-0.078,0.984,0.014,-0.066,-0.012,0.000,0.000,0.000,0.000,1,2,0,2,7,255,1224,300,123,1224
stim,127,127,0,795913.829,0.991,0.052,-0.068,-0.102,2349,0,173,2471,108,925,27,624,1,0.000,3,0,0.350,0.042,0.220,0.080,0.260,-0.149,-0.090,0.995,0.014,-0.040,-0.012,0.000,0.000,0.000,0.000,1,2,0,2,7,255,1224,300,128,1224
stim,127,127,0,795918.829,0.991,0.052,-0.068,-0.102,2351,0,171,2464,116,925,29,619,1,0.000,3,0,0.433,0.042,-0.400,-0.040,-0.160,-0.147,-0.093,0.988,0.012,-0.040,0.012,0.000,0.000,0.000,0.000,1,2,0,2,7,255,1224,300,133,1224
stim,127,127,0,795923.829,0.991,0.052,-0.068,-0.102,2347,0,171,2473,116,925,28,620,1,0.000,3,0,0.134,0.042,0.040,-0.100,0.080,-0.142,-0.083,0.980,0.012,-0.040,0.012,0.000,0.000,0.000,0.000,1,2,0,2,7,255,1224,300,138,1224
stim,148,148,0,795928.829,0.991,0.052,-0.068,-0.102,2359,0,179,2464,115,931,33,619,1,0.000,3,0,0.732,0.020,0.700,0.080,0.200,-0.146,-0.084,0.990,0.012,0.016,0.012,0.000,0.000,0.000,0.000,1,2,0,2,7,255,1224,300,143,1224
stim,148,148,0,795933.829,0.991,0.052,-0.068,-0.102,2345,0,175,2471,117,929,30,623,1,0.000,3,0,0.098,0.017,-0.080,-0.040,-0.040,-0.150,-0.092,0.993,0.006,0.016,0.022,0.000,0.000,0.000,0.000,1,2,0,2,7,255,1224,300,148,1224
stim,148,148,0,795938.829,0.991,0.052,-0.068,-0.102,2348,0,178,2460,107,922,31,621,1,0.000,3,0,0.582,0.050,-0.580,-0.040,0.020,-0.145,-0.091,0.985,0.006,-0.050,0.022,0.000,0.000,0.000,0.000,1,2,0,2,7,255,1224,300,153,1224
stim,148,148,0,795943.829,0.991,0.052,-0.068,-0.102,2357,0,175,2485,117,927,25,623,1,0.000,3,0,0.368,0.050,0.340,0.020,0.140,-0.146,-0.083,0.983,0.002,-0.050,-0.028,0.000,0.000,0.000,0.000,1,2,0,2,7,255,1224,300,158,1224
stim,159,159,0,795948.829,0.991,0.052,-0.068,-0.102,2347,0,175,2464,119,925,35,621,1,0.000,3,0,0.734,0.020,0.700,0.020,-0.220,-0.147,-0.084,0.992,0.002,0.020,-0.028,0.000,0.000,0.000,0.000,1,2,0,2,7,255,1224,300,163,1224
stim,159,159,0,795953.829,0.991,0.052,-0.068,-0.102,2343,0,171,2476,111,921,30,623,1,0.000,3,0,0.316,0.020,-0.140,-0.040,-0.280,-0.144,-0.090,0.993,0.002,0.020,0.036,0.000,0.000,0.000,0.000,1,2,0,2,7,255,1224,300,168,1224
stim,192,192,0,795958.829,0.991,0.052,-0.068,-0.102,2343,0,179,2461,110,925,31,626,1,0.000,3,0,0.583,0.046,-0.520,-0.040,0.260,-0.144,-0.092,0.984,0.036,-0.028,0.036,0.000,0.000,0.000,0.000,1,2,0,2,7,255,1224,300,173,1224
stim,192,192,0,795963.829,0.991,0.052,-0.068,-0.102,2336,0,175,2483,110,923,29,627,1,0.000,3,0,0.414,0.046,0.160,-0.040,0.380,-0.149,-0.086,0.984,0.036,-0.028,-0.028,0.000,0.000,0.000,0.000,1,2,0,2,7,255,1224,300,178,1224
stim,192,192,0,795968.829,0.991,0.052,-0.068,-0.102,2335,0,171,2470,111,922,27,623,1,0.000,3,0,0.656,0.030,0.520,0.020,-0.400,-0.150,-0.084,0.989,-0.026,-0.014,-0.028,0.000,0.000,0.000,0.000,1,2,0,2,7,255,1224,300,183,1224
stim,192,192,0,795973.829,0.991,0.052,-0.068,-0.102,2346,0,177,2472,109,921,31,622,1,0.000,3,0,0.754,0.026,0.220,-0.040,-0.720,-0.143,-0.087,0.993,-0.026,0.002,0.016,0.000,0.000,0.000,0.000,1,2,0,2,7,255,1224,300,188,1224
stim,192,192,0,795978.829,0.991,0.052,-0.068,-0.102,2344,0,171,2463,116,921,28,621,1,0.000,3,0,0.370,0.046,-0.340,-0.040,0.140,-0.140,-0.092,0.988,0.046,0.002,0.016,0.000,0.000,0.000,0.000,1,2,0,2,7,255,1224,300,193,1224
stim,192,192,0,795983.829,0.991,0.052,-0.068,-0.102,2335,0,179,2477,111,927,31,621,1,0.000,3,0,0.924,0.053,-0.280,-0.040,0.880,-0.148,-0.088,0.985,0.046,-0.026,0.000,0.000,0.000,0.000,0.000,1,2,0,2,7,255,1224,300,198,1224
stim,192,192,0,795988.829,0.991,0.052,-0.068,-0.102,2345,0,179,2476,111,927,31,627,1,0.000,3,0,0.216,0.030,0.160,-0.040,0.140,-0.153,-0.084,0.986,-0.014,-0.026,-0.012,0.000,0.000,0.000,0.000,1,2,0,2,7,255,1224,300,203,1224
stim,207,207,0,795993.829,0.991,0.052,-0.068,-0.102,2355,1,169,2458,107,917,27,629,1,0.000,3,0,1.040,0.015,0.400,0.020,-0.960,-0.148,-0.084,0.989,-0.014,0.004,-0.012,0.000,0.000,0.000,0.000,1,2,0,2,7,255,1224,300,208,1224
stim,207,207,0,795998.829,0.991,0.052,-0.068,-0.102,2353,0,172,2460,115,920,30,619,1,0.000,3,0,0.869,0.011,0.220,0.020,-0.840,-0.140,-0.088,0.991,-0.010,0.004,0.014,0.000,0.000,0.000,0.000,1,2,0,2,7,255,1224,300,213,1224
stim,207,207,0,796003.829,0.991,0.052,-0.068,-0.102,2335,0,175,2477,107,920,35,619,1,0.000,3,0,0.390,0.074,-0.080,-0.040,0.380,-0.140,-0.090,0.990,0.074,-0.002,0.014,0.000,0.000,0.000,0.000,1,2,0,2,7,255,1224,300,218,1224
stim,207,207,0,796008.829,0.991,0.052,-0.068,-0.102,2341,0,175,2479,111,922,31,624,1,0.000,3,0,0.962,0.074,-0.200,-0.040,0.940,-0.148,-0.086,0.988,0.074,-0.002,0.012,0.000,0.000,0.000,0.000,1,2,0,2,7,255,1224,300,223,1224
stim,223,223,0,796013.829,0.991,0.052,-0.068,-0.102,2343,0,174,2488,115,925,33,620,1,0.000,3,0,0.143,0.010,-0.020,0.020,0.140,-0.153,-0.084,0.986,-0.010,-0.002,0.000,0.000,0.000,0.000,0.000,1,2,0,2,7,255,1224,300,228,1224
stim,223,223,0,796018.829,0.991,0.052,-0.068,-0.102,2349,1,175,2461,115,925,27,627,1,0.000,3,0,0.822,0.024,0.220,0.140,-0.780,-0.149,-0.085,0.988,-0.024,0.000,0.000,0.000,0.000,0.000,0.000,1,2,0,2,7,255,1224,300,233,1224
stim,239,239,0,796023.830,0.991,0.052,-0.068,-0.102,2349,0,175,2473,115,929,25,621,1,0.000,3,0,0.800,0.024,0.340,0.080,-0.720,-0.142,-0.088,0.990,-0.024,0.000,0.002,0.000,0.000,0.000,0.000,1,2,0,2,7,255,1224,300,238,1224
stim,239,239,0,796028.829,0.991,0.052,-0.068,-0.102,2344,0,175,2475,109,923,26,627,1,0.000,3,0,0.202,0.058,-0.020,0.020,0.200,-0.142,-0.089,0.989,0.058,-0.006,0.008,0.000,0.000,0.000,0.000,1,2,0,2,7,255,1224,300,243,1224
stim,239,239,0,796033.829,0.991,0.052,-0.068,-0.102,2361,0,172,2473,109,922,29,621,1,0.000,3,0,0.726,0.058,-0.340,-0.040,0.640,-0.146,-0.087,0.989,0.058,-0.006,0.008,0.000,0.000,0.000,0.000,1,2,0,2,7,255,1224,300,248,1224
stim,239,239,0,796038.829,0.991,0.052,-0.068,-0.102,2341,0,179,2477,109,928,27,626,1,0.000,3,0,0.316,0.016,-0.280,-0.040,0.140,-0.151,-0.088,0.985,0.008,-0.014,0.008,0.000,0.000,0.000,0.000,1,2,0,2,7,255,1224,300,253,1224
stim,255,255,0,796043.829,0.991,0.052,-0.068,-0.102,2359,3,175,2488,113,927,27,618,1,0.000,3,0,0.477,0.026,0.100,0.080,-0.460,-0.147,-0.088,0.985,-0.002,-0.026,-0.022,0.000,0.000,0.000,0.000,1,2,0,2,7,255,1224,300,258,1224
stim,255,255,0,796048.829,0.991,0.052,-0.068,-0.102,2336,0,177,2461,108,924,31,621,1,0.000,3,0,0.525,0.026,0.340,0.020,-0.400,-0.144,-0.089,0.988,-0.002,-0.026,-0.022,0.000,0.000,0.000,0.000,1,2,0,2,7,255,1224,300,263,1224
stim,287,287,0,796053.829,0.991,0.052,-0.068,-0.102,2347,0,174,2464,115,923,35,627,1,0.000,3,0,0.222,0.038,0.220,0.020,0.020,-0.144,-0.087,0.990,0.034,-0.018,0.002,0.000,0.000,0.000,0.000,1,2,0,2,7,255,1224,300,268,1224
stim,287,287,0,796058.829,0.991,0.052,-0.068,-0.102,2357,0,169,2474,106,930,33,622,1,0.000,3,0,0.390,0.034,-0.080,-0.040,0.380,-0.145,-0.086,0.990,0.034,-0.004,0.020,0.000,0.000,0.000,0.000,1,2,0,2,7,255,1224,300,273,1224
stim,287,287,0,796063.829,0.991,0.052,-0.068,-0.102,2347,0,179,2477,108,921,27,619,1,0.000,3,0,0.202,0.020,-0.140,-0.040,0.140,-0.148,-0.087,0.987,0.020,-0.004,0.020,0.000,0.000,0.000,0.000,1,2,0,2,7,255,1224,300,278,1224
stim,287,287,0,796068.829,0.991,0.052,-0.068,-0.102,2343,0,169,2464,109,924,35,621,1,0.000,3,0,0.162,0.016,-0.020,0.020,-0.160,-0.148,-0.088,0.985,-0.008,-0.014,-0.008,0.000,0.000,0.000,0.000,1,2,0,2,7,255,1224,300,283,1224
stim,287,287,0,796073.829,0.991,0.052,-0.068,-0.102,2354,0,171,2479,105,923,29,629,1,0.000,3,0,0.357,0.022,0.280,0.020,-0.220,-0.146,-0.089,0.987,-0.008,-0.020,-0.008,0.000,0.000,0.000,0.000,1,2,0,2,7,255,1224,300,288,1224
stim,287,287,0,796078.829,0.991,0.052,-0.068,-0.102,2357,0,172,2477,107,919,28,623,1,0.000,3,0,0.224,0.022,0.220,0.020,-0.040,-0.146,-0.088,0.989,0.008,-0.020,-0.008,0.000,0.000,0.000,0.000,1,2,0,2,7,255,1224,300,293,1224
stim,303,303,0,796083.829,0.991,0.052,-0.068,-0.102,2347,0,169,2463,113,929,33,615,1,0.000,3,0,0.098,0.016,0.040,-0.040,0.080,-0.146,-0.085,0.989,0.010,-0.012,0.008,0.000,0.000,0.000,0.000,1,2,0,2,7,255,1224,300,298,1224
stim,303,303,0,796088.830,0.991,0.052,-0.068,-0.102,2361,0,172,2471,109,923,27,622,1,0.000,3,0,0.115,0.016,-0.080,0.020,0.080,-0.146,-0.088,0.988,0.010,-0.012,0.008,0.000,0.000,0.000,0.000,1,2,0,2,7,255,1224,300,303,1224
stim,303,303,0,796093.829,0.991,0.052,-0.068,-0.102,2336,0,171,2468,106,929,25,629,1,0.000,3,0,0.060,0.016,0.040,0.020,-0.040,-0.147,-0.088,0.986,0.008,-0.014,0.006,0.000,0.000,0.000,0.000,1,2,0,2,7,255,1224,300,308,1224
stim,303,303,0,796098.829,0.991,0.052,-0.068,-0.102,2341,0,172,2479,107,926,30,623,1,0.000,3,0,0.190,0.014,0.160,0.020,-0.100,-0.147,-0.088,0.988,0.002,-0.014,0.002,0.000,0.000,0.000,0.000,1,2,0,2,7,255,1224,300,313,1224
stim,319,319,0,796103.829,0.991,0.052,-0.068,-0.102,2355,0,173,2469,113,923,35,625,1,0.000,3,0,0.242,0.014,0.220,0.020,-0.100,-0.146,-0.088,0.987,0.002,-0.014,-0.004,0.000,0.000,0.000,0.000,1,2,0,2,7,255,1224,300,318,1224
stim,319,319,0,796108.829,0.991,0.052,-0.068,-0.102,2349,0,177,2479,110,925,31,619,1,0.000,3,0,0.115,0.018,0.100,-0.040,-0.040,-0.146,-0.087,0.990,0.012,-0.014,0.002,0.000,0.000,0.000,0.000,1,2,0,2,7,255,1224,300,323,1224
stim,319,319,0,796113.829,0.991,0.052,-0.068,-0.102,2343,0,173,2464,105,931,27,621,1,0.000,3,0,0.085,0.018,-0.080,0.020,0.020,-0.147,-0.088,0.988,0.012,-0.014,0.006,0.000,0.000,0.000,0.000,1,2,0,2,7,255,1224,300,328,1224
stim,335,335,0,796118.829,0.991,0.052,-0.068,-0.102,2343,0,171,2475,114,922,29,624,1,0.000,3,0,0.049,0.013,-0.020,-0.040,0.020,-0.147,-0.087,0.987,0.004,-0.012,0.006,0.000,0.000,0.000,0.000,1,2,0,2,7,255,1224,300,333,1224
stim,335,335,0,796123.829,0.991,0.052,-0.068,-0.102,2352,0,177,2485,103,924,30,618,1,0.000,3,0,0.110,0.015,0.100,0.020,-0.040,-0.146,-0.088,0.988,0.004,-0.014,0.000,0.000,0.000,0.000,0.000,1,2,0,2,7,255,1224,300,338,1224
stim,335,335,0,796128.829,0.991,0.052,-0.068,-0.102,2347,0,174,2472,110,926,28,623,1,0.000,3,0,0.190,0.019,0.160,0.020,-0.100,-0.146,-0.088,0.987,0.006,-0.018,-0.008,0.000,0.000,0.000,0.000,1,2,0,2,7,255,1224,300,343,1224
stim,351,351,0,796133.829,0.991,0.052,-0.068,-0.102,2348,0,179,2485,109,923,31,618,1,0.000,3,0,0.110,0.019,0.040,0.020,-0.100,-0.147,-0.088,0.988,0.006,-0.018,0.000,0.000,0.000,0.000,0.000,1,2,0,2,7,255,1224,300,348,1224
stim,351,351,0,796138.830,0.991,0.052,-0.068,-0.102,2343,0,175,2475,109,925,28,627,1,0.000,3,0,0.035,0.015,-0.020,0.020,0.020,-0.145,-0.087,0.988,0.006,-0.014,0.002,0.000,0.000,0.000,0.000,1,2,0,2,7,255,1224,300,353,1224
stim,351,351,0,796143.829,0.991,0.052,-0.068,-0.102,2340,0,177,2487,109,927,28,621,1,0.000,3,0,0.035,0.014,-0.020,0.020,0.020,-0.147,-0.088,0.987,0.002,-0.014,0.002,0.000,0.000,0.000,0.000,1,2,0,2,7,255,1224,300,358,1224
stim,351,351,0,796148.829,0.991,0.052,-0.068,-0.102,2345,0,173,2464,107,930,31,625,1,0.000,3,0,0.060,0.014,0.040,0.020,-0.040,-0.147,-0.088,0.987,0.000,-0.014,-0.008,0.000,0.000,0.000,0.000,1,2,0,2,7,255,1224,300,363,1224
stim,383,383,0,796153.829,0.991,0.052,-0.068,-0.102,2363,0,174,2472,107,930,33,627,1,0.000,3,0,0.170,0.014,0.160,-0.040,-0.040,-0.147,-0.088,0.989,0.000,-0.014,-0.008,0.000,0.000,0.000,0.000,1,2,0,2,7,255,1224,300,368,1224
stim,383,383,0,796158.829,0.991,0.052,-0.068,-0.102,2343,0,173,2471,109,933,29,627,1,0.000,3,0,0.193,0.013,0.160,-0.040,-0.100,-0.146,-0.087,0.989,0.004,-0.012,0.008,0.000,0.000,0.000,0.000,1,2,0,2,7,255,1224,300,373,1224
stim,383,383,0,796163.829,0.991,0.052,-0.068,-0.102,2351,0,171,2461,115,925,27,620,1,0.000,3,0,0.060,0.013,0.040,0.020,-0.040,-0.147,-0.088,0.989,0.004,-0.012,0.010,0.000,0.000,0.000,0.000,1,2,0,2,7,255,1224,300,378,1224
stim,383,383,0,796168.829,0.991,0.052,-0.068,-0.102,2345,0,171,2474,112,923,37,624,1,0.000,3,0,0.060,0.006,0.040,-0.040,0.020,-0.146,-0.087,0.988,0.004,-0.004,0.008,0.000,0.000,0.000,0.000,1,2,0,2,7,255,1224,300,383,1224
stim,383,383,0,796173.829,0.991,0.052,-0.068,-0.102,2349,0,177,2487,105,923,28,618,1,0.000,3,0,0.060,0.011,0.040,0.020,-0.040,-0.146,-0.088,0.988,0.004,-0.010,0.006,0.000,0.000,0.000,0.000,1,2,0,2,7,255,1224,300,388,1224
stim,383,383,0,796178.829,0.991,0.052,-0.068,-0.102,2345,1,174,2483,111,927,30,623,1,0.000,3,0,0.110,0.009,0.040,0.020,-0.100,-0.146,-0.087,0.987,0.004,-0.008,0.000,0.000,0.000,0.000,0.000,1,2,0,2,7,255,1224,300,393,1224
stim,415,415,0,796183.829,0.991,0.052,-0.068,-0.102,2347,0,179,2471,108,933,29,623,1,0.000,3,0,0.110,0.010,0.040,0.020,-0.100,-0.146,-0.087,0.988,0.006,-0.008,0.004,0.000,0.000,0.000,0.000,1,2,0,2,7,255,1224,300,398,1224
stim,415,415,0,796188.830,0.991,0.052,-0.068,-0.102,2325,0,169,2468,117,921,30,626,1,0.000,3,0,0.110,0.010,0.040,0.020,-0.100,-0.146,-0.088,0.988,0.006,-0.008,0.004,0.000,0.000,0.000,0.000,1,2,0,2,7,255,1224,300,403,1224
stim,415,415,0,796193.829,0.991,0.052,-0.068,-0.102,2361,0,173,2469,103,923,26,617,1,0.000,3,0,0.049,0.008,-0.020,0.020,-0.040,-0.147,-0.087,0.988,0.006,-0.006,0.004,0.000,0.000,0.000,0.000,1,2,0,2,7,255,1224,300,408,1224
stim,415,415,0,796198.829,0.991,0.052,-0.068,-0.102,2347,0,175,2471,114,925,27,623,1,0.000,3,0,0.049,0.007,-0.020,0.020,-0.040,-0.146,-0.087,0.988,0.004,-0.006,0.004,0.000,0.000,0.000,0.000,1,2,0,2,7,255,1224,300,413,1224
stim,415,415,0,796203.829,0.991,0.052,-0.068,-0.102,2347,0,172,2472,109,925,33,620,1,0.000,3,0,0.035,0.007,-0.020,0.020,0.020,-0.146,-0.088,0.988,0.004,-0.006,0.004,0.000,0.000,0.000,0.000,1,2,0,2,7,255,1224,300,418,1224
stim,415,415,0,796208.829,0.991,0.052,-0.068,-0.102,2349,0,171,2470,115,920,29,620,1,0.000,3,0,0.060,0.012,0.040,0.020,-0.040,-0.145,-0.087,0.988,0.012,-0.002,0.004,0.000,0.000,0.000,0.000,1,2,0,2,7,255,1224,300,423,1224
stim,431,431,0,796213.829,0.991,0.052,-0.068,-0.102,2343,0,171,2464,110,925,27,623,1,0.000,3,0,0.069,0.022,0.040,-0.040,-0.040,-0.145,-0.089,0.988,0.020,-0.008,0.002,0.000,0.000,0.000,0.000,1,2,0,2,7,255,1224,300,428,1224
stim,431,431,0,796218.829,0.991,0.052,-0.068,-0.102,2343,0,179,2464,109,921,33,618,1,0.000,3,0,0.049,0.022,-0.020,-0.040,0.020,-0.146,-0.088,0.989,0.020,-0.008,0.002,0.000,0.000,0.000,0.000,1,2,0,2,7,255,1224,300,433,1224
stim,432,432,0,796223.829,0.991,0.052,-0.068,-0.102,2347,0,172,2470,117,923,39,623,1,0.000,3,0,0.049,0.020,-0.020,-0.040,0.020,-0.148,-0.089,0.988,0.012,-0.016,0.004,0.000,0.000,0.000,0.000,1,2,0,2,7,255,1224,300,438,1224
stim,432,432,0,796228.829,0.991,0.052,-0.068,-0.102,2349,1,180,2463,113,925,31,627,1,0.000,3,0,0.110,0.008,0.100,-0.040,0.020,-0.146,-0.087,0.987,0.002,-0.008,0.004,0.000,0.000,0.000,0.000,1,2,0,2,7,255,1224,300,443,1224
stim,449,449,0,796233.829,0.991,0.052,-0.068,-0.102,2347,0,171,2461,111,923,33,621,1,0.000,3,0,0.110,0.014,0.100,-0.040,0.020,-0.146,-0.088,0.987,0.002,-0.014,-0.004,0.000,0.000,0.000,0.000,1,2,0,2,7,255,1224,300,448,1224
stim,449,449,0,796238.829,0.991,0.052,-0.068,-0.102,2355,0,179,2469,107,927,29,617,1,0.000,3,0,0.110,0.008,0.100,-0.040,0.020,-0.145,-0.088,0.988,0.006,-0.006,-0.004,0.000,0.000,0.000,0.000,1,2,0,2,7,255,1224,300,453,1224
stim,449,449,0,796243.829,0.991,0.052,-0.068,-0.102,2359,0,173,2477,108,927,26,620,1,0.000,3,0,0.170,0.008,0.160,-0.040,-0.040,-0.146,-0.087,0.988,0.006,-0.006,0.002,0.000,0.000,0.000,0.000,1,2,0,2,7,255,1224,300,458,1224
stim,449,449,0,796248.829,0.991,0.052,-0.068,-0.102,2342,0,173,2475,105,929,27,621,1,0.000,3,0,0.110,0.007,0.040,-0.100,0.020,-0.146,-0.087,0.989,0.006,-0.004,0.004,0.000,0.000,0.000,0.000,1,2,0,2,7,255,1224,300,463,1224
stim,495,495,0,796253.829,0.991,0.052,-0.068,-0.102,2344,0,181,2471,109,919,30,619,1,0.000,3,0,0.115,0.007,0.100,-0.040,-0.040,-0.146,-0.087,0.989,0.006,-0.004,0.008,0.000,0.000,0.000,0.000,1,2,0,2,7,255,1224,300,468,1224
stim,495,495,0,796258.829,0.991,0.052,-0.068,-0.102,2350,0,174,2472,110,931,30,623,1,0.000,3,0,0.115,0.006,0.100,-0.040,-0.040,-0.146,-0.087,0.989,0.006,-0.002,0.008,0.000,0.000,0.000,0.000,1,2,0,2,7,255,1224,300,473,1224
stim,495,495,0,796263.829,0.991,0.052,-0.068,-0.102,2355,0,180,2471,115,927,35,620,1,0.000,3,0,0.110,0.010,0.100,-0.040,0.020,-0.145,-0.089,0.988,0.010,-0.002,0.008,0.000,0.000,0.000,0.000,1,2,0,2,7,255,1224,300,478,1224
stim,495,495,0,796268.829,0.991,0.052,-0.068,-0.102,2349,0,181,2463,107,931,33,625,1,0.000,3,0,0.069,0.012,0.040,-0.040,-0.040,-0.146,-0.087,0.988,0.012,0.002,0.004,0.000,0.000,0.000,0.000,1,2,0,2,7,255,1224,300,483,1224
stim,495,495,0,796273.829,0.991,0.052,-0.068,-0.102,2343,0,167,2486,115,920,26,620,1,0.000,3,0,0.060,0.012,0.040,0.020,-0.040,-0.146,-0.087,0.988,0.012,0.002,0.004,0.000,0.000,0.000,0.000,1,2,0,2,7,255,1224,300,488,1224
stim,495,495,0,796278.829,0.991,0.052,-0.068,-0.102,2347,0,181,2472,115,926,29,619,1,0.000,3,0,0.110,0.008,0.100,-0.040,0.020,-0.146,-0.087,0.989,0.008,0.002,0.004,0.000,0.000,0.000,0.000,1,2,0,2,7,255,1224,300,493,1224
stim,511,511,0,796283.829,0.991,0.052,-0.068,-0.102,2344,0,179,2479,117,923,33,629,1,0.000,3,0,0.060,0.002,0.040,-0.040,0.020,-0.147,-0.087,0.989,0.002,0.000,0.008,0.000,0.000,0.000,0.000,1,2,0,2,7,255,1224,300,498,1224
stim,511,511,0,796288.829,0.991,0.052,-0.068,-0.102,2347,0,173,2463,107,930,38,618,1,0.000,3,0,0.060,0.004,0.040,0.020,-0.040,-0.146,-0.088,0.987,0.004,-0.002,0.008,0.000,0.000,0.000,0.000,1,2,0,2,7,255,1224,300,503,1224
stim,511,511,0,796293.829,0.991,0.052,-0.068,-0.102,2344,1,171,2467,107,919,28,624,1,0.000,3,0,0.060,0.007,0.040,-0.040,0.020,-0.146,-0.088,0.988,0.004,-0.006,-0.002,0.000,0.000,0.000,0.000,1,2,0,2,7,255,1224,300,508,1224
stim,511,511,0,796298.829,0.991,0.052,-0.068,-0.102,2342,0,175,2473,104,920,29,627,1,0.000,3,0,0.104,0.012,0.100,0.020,0.020,-0.146,-0.088,0.988,0.010,-0.006,-0.002,0.000,0.000,0.000,0.000,1,2,0,2,7,255,1224,300,513,1224
stim,511,511,0,796303.829,0.991,0.052,-0.068,-0.102,2346,2,174,2475,107,925,38,619,1,0.000,3,0,0.049,0.015,0.040,0.020,0.020,-0.146,-0.088,0.988,0.014,-0.006,0.002,0.000,0.000,0.000,0.000,1,2,0,2,7,255,1224,300,518,1224
stim,511,511,0,796308.829,0.991,0.052,-0.068,-0.102,2347,0,164,2464,109,925,29,619,1,0.000,3,0,0.092,0.012,0.040,0.020,0.080,-0.146,-0.088,0.988,0.010,-0.006,0.002,0.000,0.000,0.000,0.000,1,2,0,2,7,255,1224,300,523,1224
stim,528,528,0,796313.829,0.991,0.052,-0.068,-0.102,2346,0,177,2457,109,926,31,617,1,0.000,3,0,0.092,0.007,0.040,0.020,0.080,-0.147,-0.087,0.988,0.004,-0.006,0.002,0.000,0.000,0.000,0.000,1,2,0,2,7,255,1224,300,528,1224
stim,528,528,0,796318.829,0.991,0.052,-0.068,-0.102,2335,0,173,2485,110,930,27,629,1,0.000,3,0,0.183,0.006,0.160,-0.040,0.080,-0.146,-0.087,0.988,0.004,-0.004,0.000,0.000,0.000,0.000,0.000,1,2,0,2,7,255,1224,300,533,1224
stim,528,528,0,796323.829,0.991,0.052,-0.068,-0.102,2343,0,174,2477,113,921,33,621,1,0.000,3,0,0.110,0.006,0.100,-0.040,0.020,-0.146,-0.088,0.988,0.004,-0.004,0.000,0.000,0.000,0.000,0.000,1,2,0,2,7,255,1224,300,538,1224
stim,528,528,0,796328.829,0.991,0.052,-0.068,-0.102,2361,0,172,2471,116,923,35,623,1,0.000,3,0,0.162,0.006,0.160,0.020,0.020,-0.147,-0.087,0.987,0.004,-0.004,-0.002,0.000,0.000,0.000,0.000,1,2,0,2,7,255,1224,300,543,1224
stim,548,548,0,796333.829,0.991,0.052,-0.068,-0.102,2356,0,173,2472,112,923,28,627,1,0.000,3,0,0.110,0.009,0.100,-0.040,0.020,-0.146,-0.088,0.986,0.004,-0.008,-0.010,0.000,0.000,0.000,0.000,1,2,0,2,7,255,1224,300,548,1224
stim,548,548,0,796338.830,0.991,0.052,-0.068,-0.102,2351,0,179,2464,108,931,37,621,1,0.000,3,0,0.162,0.008,0.100,-0.100,0.080,-0.146,-0.088,0.988,0.006,-0.006,-0.010,0.000,0.000,0.000,0.000,1,2,0,2,7,255,1224,300,553,1224
stim,559,559,0,796343.829,0.991,0.052,-0.068,-0.102,2359,0,176,2471,108,923,30,633,1,0.000,3,0,0.237,0.008,0.220,-0.040,0.080,-0.146,-0.087,0.988,0.006,-0.006,-0.002,0.000,0.000,0.000,0.000,1,2,0,2,7,255,1224,300,558,1224
stim,559,559,0,796348.829,0.991,0.052,-0.068,-0.102,2354,0,172,2463,117,920,29,624,1,0.000,3,0,0.134,0.003,0.100,-0.040,0.080,-0.146,-0.087,0.989,0.002,0.002,0.004,0.000,0.000,0.000,0.000,1,2,0,2,7,255,1224,300,563,1224
stim,591,591,0,796353.829,0.991,0.052,-0.068,-0.102,2359,0,171,2473,112,925,34,621,1,0.000,3,0,0.110,0.003,0.100,-0.040,0.020,-0.146,-0.087,0.988,0.002,0.002,0.004,0.000,0.000,0.000,0.000,1,2,0,2,7,255,1224,300,568,1224
stim,591,591,0,796358.829,0.991,0.052,-0.068,-0.102,2343,0,172,2471,107,931,27,624,1,0.000,3,0,0.060,0.003,0.040,-0.040,0.020,-0.146,-0.087,0.988,0.002,0.002,0.004,0.000,0.000,0.000,0.000,1,2,0,2,7,255,1224,300,573,1224
stim,591,591,0,796363.829,0.991,0.052,-0.068,-0.102,2349,0,181,2486,109,921,35,623,1,0.000,3,0,0.166,0.006,0.160,-0.040,0.020,-0.146,-0.087,0.989,0.006,0.002,0.004,0.000,0.000,0.000,0.000,1,2,0,2,7,255,1224,300,578,1224
stim,591,591,0,796368.829,0.991,0.052,-0.068,-0.102,2336,3,175,2487,111,930,29,628,1,0.000,3,0,0.115,0.002,0.100,-0.040,-0.040,-0.147,-0.087,0.989,0.000,0.002,0.008,0.000,0.000,0.000,0.000,1,2,0,2,7,255,1224,300,583,1224
stim,591,591,0,796373.829,0.991,0.052,-0.068,-0.102,2343,0,177,2464,106,926,31,623,1,0.000,3,0,0.049,0.003,0.040,0.020,0.020,-0.147,-0.088,0.988,-0.002,-0.002,0.008,0.000,0.000,0.000,0.000,1,2,0,2,7,255,1224,300,588,1224
stim,591,591,0,796378.829,0.991,0.052,-0.068,-0.102,2355,0,172,2475,107,927,30,629,1,0.000,3,0,0.110,0.008,0.100,-0.040,0.020,-0.146,-0.088,0.988,-0.002,-0.008,0.004,0.000,0.000,0.000,0.000,1,2,0,2,7,255,1224,300,593,1224
stim,612,612,0,796383.829,0.991,0.052,-0.068,-0.102,2345,0,169,2477,117,935,34,624,1,0.000,3,0,0.049,0.010,0.040,0.020,0.020,-0.146,-0.087,0.988,0.006,-0.008,0.004,0.000,0.000,0.000,0.000,1,2,0,2,7,255,1224,300,598,1224
stim,612,612,0,796388.829,0.991,0.052,-0.068,-0.102,2346,0,171,2464,111,924,31,622,1,0.000,3,0,0.049,0.009,0.040,0.020,0.020,-0.146,-0.088,0.988,0.008,-0.004,0.002,0.000,0.000,0.000,0.000,1,2,0,2,7,255,1224,300,603,1224
stim,612,612,0,796393.829,0.991,0.052,-0.068,-0.102,2342,1,176,2463,108,923,31,631,1,0.000,3,0,0.060,0.006,0.040,0.020,-0.040,-0.147,-0.087,0.988,0.006,-0.002,0.000,0.000,0.000,0.000,0.000,1,2,0,2,7,255,1224,300,608,1224
stim,612,612,0,796398.829,0.991,0.052,-0.068,-0.102,2336,0,180,2463,107,923,28,631,1,0.000,3,0,0.115,0.003,0.100,-0.040,-0.040,-0.146,-0.087,0.988,0.002,-0.002,0.002,0.000,0.000,0.000,0.000,1,2,0,2,7,255,1224,300,613,1224
stim,612,612,0,796403.829,0.991,0.052,-0.068,-0.102,2351,0,175,2475,111,920,31,625,1,0.000,3,0,0.049,0.003,-0.020,-0.040,0.020,-0.146,-0.087,0.988,0.002,-0.002,0.004,0.000,0.000,0.000,0.000,1,2,0,2,7,255,1224,300,618,1224
stim,612,612,0,796408.829,0.991,0.052,-0.068,-0.102,2355,0,176,2475,113,921,28,626,1,0.000,3,0,0.115,0.003,0.100,-0.040,-0.040,-0.146,-0.087,0.988,0.002,-0.002,0.004,0.000,0.000,0.000,0.000,1,2,0,2,7,255,1224,300,623,1224
stim,625,625,0,796413.829,0.991,0.052,-0.068,-0.102,2350,0,176,2475,108,925,31,623,1,0.000,3,0,0.110,0.002,0.100,0.020,-0.040,-0.146,-0.087,0.988,0.002,0.000,0.004,0.000,0.000,0.000,0.000,1,2,0,2,7,255,1224,300,628,1224
stim,625,625,0,796418.829,0.991,0.052,-0.068,-0.102,2355,0,173,2485,116,923,35,622,1,0.000,3,0,0.110,0.002,0.040,0.020,-0.100,-0.146,-0.088,0.988,0.002,0.000,0.000,0.000,0.000,0.000,0.000,1,2,0,2,7,255,1224,300,633,1224
stim,655,655,0,796423.830,0.991,0.052,-0.068,-0.102,2347,0,171,2476,111,925,29,627,1,0.000,3,0,0.115,0.002,0.100,-0.040,-0.040,-0.146,-0.086,0.987,0.002,0.000,0.000,0.000,0.000,0.000,0.000,1,2,0,2,7,255,1224,300,638,1224
stim,655,655,0,796428.829,0.991,0.052,-0.068,-0.102,2349,0,173,2469,115,925,30,628,1,0.000,3,0,0.110,0.003,0.040,0.020,-0.100,-0.146,-0.087,0.987,0.002,0.002,-0.010,0.000,0.000,0.000,0.000,1,2,0,2,7,255,1224,300,643,1224
stim,655,655,0,796433.829,0.991,0.052,-0.068,-0.102,2347,0,172,2469,108,927,33,623,1,0.000,3,0,0.069,0.004,0.040,-0.040,-0.040,-0.146,-0.087,0.987,0.002,0.004,-0.010,0.000,0.000,0.000,0.000,1,2,0,2,7,255,1224,300,648,1224
stim,655,655,0,796438.829,0.991,0.052,-0.068,-0.102,2344,0,175,2459,111,919,27,631,1,0.000,3,0,0.110,0.004,0.040,0.020,-0.100,-0.146,-0.088,0.988,0.004,0.002,-0.006,0.000,0.000,0.000,0.000,1,2,0,2,7,255,1224,300,653,1224
stim,655,655,0,796443.829,0.991,0.052,-0.068,-0.102,2343,0,177,2464,112,921,33,623,1,0.000,3,0,0.060,0.006,0.040,0.020,-0.040,-0.146,-0.087,0.988,0.004,0.004,-0.002,0.000,0.000,0.000,0.000,1,2,0,2,7,255,1224,300,658,1224
stim,655,655,0,796448.829,0.991,0.052,-0.068,-0.102,2352,0,181,2475,108,924,31,620,1,0.000,3,0,0.060,0.004,0.040,0.020,-0.040,-0.146,-0.086,0.988,0.000,0.004,-0.002,0.000,0.000,0.000,0.000,1,2,0,2,7,255,1224,300,663,1224
stim,687,687,0,796453.829,0.991,0.052,-0.068,-0.102,2334,0,171,2473,111,925,33,630,1,0.000,3,0,0.060,0.004,0.040,0.020,-0.040,-0.146,-0.087,0.988,0.000,0.004,-0.002,0.000,0.000,0.000,0.000,1,2,0,2,7,255,1224,300,668,1224
stim,687,687,0,796458.829,0.991,0.052,-0.068,-0.102,2345,0,172,2477,111,931,30,623,1,0.000,3,0,0.110,0.002,0.040,0.020,-0.100,-0.146,-0.087,0.988,0.002,0.000,-0.002,0.000,0.000,0.000,0.000,1,2,0,2,7,255,1224,300,673,1224
stim,687,687,0,796463.829,0.991,0.052,-0.068,-0.102,2331,0,181,2463,107,925,29,631,1,0.000,3,0,0.104,0.002,-0.020,0.020,-0.100,-0.146,-0.086,0.988,0.002,0.000,0.004,0.000,0.000,0.000,0.000,1,2,0,2,7,255,1224,300,678,1224
stim,687,687,0,796468.829,0.991,0.052,-0.068,-0.102,2342,0,169,2478,109,925,29,622,1,0.000,3,0,0.049,0.000,-0.020,0.020,-0.040,-0.147,-0.087,0.989,0.000,0.000,0.004,0.000,0.000,0.000,0.000,1,2,0,2,7,255,1224,300,683,1224
stim,687,687,0,796473.830,0.991,0.052,-0.068,-0.102,2345,0,172,2469,113,922,29,631,1,0.000,3,0,0.110,0.002,0.040,0.020,-0.100,-0.147,-0.087,0.987,-0.002,0.000,0.004,0.000,0.000,0.000,0.000,1,2,0,2,7,255,1224,300,688,1224
stim,687,687,0,796478.829,0.991,0.052,-0.068,-0.101,2343,1,179,2471,118,923,35,629,1,0.000,3,0,0.104,0.003,-0.020,0.020,-0.100,-0.146,-0.088,0.988,-0.002,-0.002,0.000,0.000,0.000,0.000,0.000,1,2,0,2,7,255,1224,300,693,1224
stim,687,687,0,796483.829,0.991,0.052,-0.068,-0.101,2343,2,174,2471,115,926,29,627,1,0.000,3,0,0.115,0.004,0.100,-0.040,-0.040,-0.146,-0.088,0.988,0.002,-0.004,-0.002,0.000,0.000,0.000,0.000,1,2,0,2,7,255,1224,300,698,1224
stim,703,703,0,796488.829,0.991,0.052,-0.068,-0.101,2332,0,173,2459,111,919,27,621,1,0.000,3,0,0.060,0.007,-0.020,-0.040,-0.040,-0.146,-0.088,0.988,0.006,-0.004,0.000,0.000,0.000,0.000,0.000,1,2,0,2,7,255,1224,300,703,1224
stim,703,703,0,796493.829,0.991,0.052,-0.068,-0.101,2343,2,175,2470,109,925,27,621,1,0.000,3,0,0.069,0.007,0.040,-0.040,-0.040,-0.146,-0.088,0.988,0.006,-0.004,0.002,0.000,0.000,0.000,0.000,1,2,0,2,7,255,1224,300,708,1224
stim,703,703,0,796498.829,0.991,0.052,-0.068,-0.101,2345,0,179,2460,106,923,29,627,1,0.000,3,0,0.049,0.007,-0.020,0.020,-0.040,-0.147,-0.088,0.988,0.004,-0.006,0.004,0.000,0.000,0.000,0.000,1,2,0,2,7,255,1224,300,713,1224
stim,703,703,0,796503.829,0.991,0.052,-0.068,-0.101,2349,0,172,2464,109,923,28,621,1,0.000,3,0,0.060,0.006,0.040,0.020,-0.040,-0.146,-0.087,0.988,0.000,-0.006,0.004,0.000,0.000,0.000,0.000,1,2,0,2,7,255,1224,300,718,1224
stim,719,719,0,796508.829,0.991,0.052,-0.068,-0.101,2349,0,175,2477,110,923,33,624,1,0.000,3,0,0.060,0.004,0.040,0.020,-0.040,-0.146,-0.087,0.988,0.000,0.004,0.004,0.000,0.000,0.000,0.000,1,2,0,2,7,255,1224,300,723,1224
stim,719,719,0,796513.830,0.991,0.052,-0.068,-0.101,2341,0,176,2483,107,925,29,627,1,0.000,3,0,0.060,0.006,0.040,0.020,-0.040,-0.146,-0.087,0.987,0.004,0.004,-0.002,0.000,0.000,0.000,0.000,1,2,0,2,7,255,1224,300,728,1224
stim,735,735,0,796518.829,0.991,0.052,-0.068,-0.101,2344,0,173,2461,115,929,29,629,1,0.000,3,0,0.069,0.006,0.040,-0.040,-0.040,-0.146,-0.088,0.988,0.006,0.002,-0.002,0.000,0.000,0.000,0.000,1,2,0,2,7,255,1224,300,733,1224
stim,735,735,0,796523.829,0.991,0.052,-0.068,-0.101,2355,0,171,2472,117,926,27,621,1,0.000,3,0,0.069,0.007,0.040,-0.040,-0.040,-0.146,-0.088,0.988,0.006,-0.004,-0.002,0.000,0.000,0.000,0.000,1,2,0,2,7,255,1224,300,738,1224
stim,751,751,0,796528.829,0.991,0.052,-0.068,-0.101,2353,0,176,2479,111,925,26,627,1,0.000,3,0,0.069,0.004,0.040,-0.040,-0.040,-0.147,-0.088,0.987,0.002,-0.004,-0.002,0.000,0.000,0.000,0.000,1,2,0,2,7,255,1224,300,743,1224
stim,751,751,0,796533.829,0.991,0.052,-0.068,-0.101,2355,0,171,2477,112,929,33,628,1,0.000,3,0,0.060,0.004,0.040,0.020,-0.040,-0.146,-0.087,0.988,0.000,-0.004,0.000,0.000,0.000,0.000,0.000,1,2,0,2,7,255,1224,300,748,1224
stim,751,751,0,796538.829,0.991,0.052,-0.068,-0.101,2347,0,176,2475,110,927,29,627,1,0.000,3,0,0.115,0.004,0.100,-0.040,-0.040,-0.147,-0.087,0.987,-0.004,0.000,-0.004,0.000,0.000,0.000,0.000,1,2,0,2,7,255,1224,300,753,1224
stim,751,751,0,796543.829,0.991,0.052,-0.068,-0.101,2345,0,181,2462,111,933,31,621,1,0.000,3,0,0.115,0.002,0.100,-0.040,-0.040,-0.146,-0.087,0.988,0.000,0.002,0.000,0.000,0.000,0.000,0.000,1,2,0,2,7,255,1224,300,758,1224
stim,767,767,0,796548.829,0.991,0.052,-0.068,-0.101,2342,0,177,2462,112,929,33,629,1,0.000,3,0,0.104,0.004,0.100,0.020,0.020,-0.147,-0.087,0.988,-0.004,0.002,0.004,0.000,0.000,0.000,0.000,1,2,0,2,7,255,1224,300,763,1224
stim,767,767,0,796553.829,0.991,0.052,-0.068,-0.101,2348,0,181,2470,112,926,33,619,1,0.000,3,0,0.115,0.003,0.100,-0.040,-0.040,-0.146,-0.086,0.988,-0.002,0.002,0.004,0.000,0.000,0.000,0.000,1,2,0,2,7,255,1224,300,768,1224
stim,783,783,0,796558.829,0.991,0.052,-0.068,-0.101,2343,0,177,2464,115,922,30,620,1,0.000,3,0,0.069,0.003,0.040,-0.040,-0.040,-0.146,-0.087,0.989,-0.002,0.002,0.004,0.000,0.000,0.000,0.000,1,2,0,2,7,255,1224,300,773,1224
stim,783,783,0,796563.829,0.991,0.052,-0.068,-0.101,2342,0,171,2471,111,925,29,629,1,0.000,3,0,0.049,0.002,-0.020,-0.040,0.020,-0.146,-0.088,0.987,0.000,0.002,0.002,0.000,0.000,0.000,0.000,1,2,0,2,7,255,1224,300,778,1224
stim,800,800,0,796568.830,0.991,0.052,-0.068,-0.101,2347,0,172,2477,115,923,26,624,1,0.000,3,0,0.060,0.003,0.040,0.020,-0.040,-0.146,-0.088,0.988,0.002,-0.002,0.002,0.000,0.000,0.000,0.000,1,2,0,2,7,255,1224,300,783,1224
stim,800,800,0,796573.829,0.991,0.052,-0.068,-0.101,2349,0,179,2477,111,924,33,631,1,0.000,3,0,0.060,0.007,0.040,-0.040,0.020,-0.146,-0.088,0.988,0.006,-0.004,-0.002,0.000,0.000,0.000,0.000,1,2,0,2,7,255,1224,300,788,1224
stim,800,800,0,796578.829,0.991,0.052,-0.068,-0.101,2349,0,172,2473,112,923,29,630,1,0.000,3,0,0.060,0.006,0.040,-0.040,0.020,-0.146,-0.087,0.987,0.006,-0.002,-0.002,0.000,0.000,0.000,0.000,1,2,0,2,7,255,1224,300,793,1224
stim,800,800,0,796583.829,0.991,0.052,-0.068,-0.101,2359,0,169,2471,111,923,29,624,1,0.000,3,0,0.069,0.000,0.040,-0.040,-0.040,-0.146,-0.087,0.987,0.000,0.000,-0.006,0.000,0.000,0.000,0.000,1,2,0,2,7,255,1224,300,798,1224
stim,800,800,0,796588.829,0.991,0.052,-0.068,-0.101,2355,0,171,2477,112,925,29,624,1,0.000,3,0,0.104,0.002,0.100,0.020,0.020,-0.147,-0.087,0.987,-0.002,0.000,-0.006,0.000,0.000,0.000,0.000,1,2,0,2,7,255,1224,300,803,1224
stim,800,800,0,796593.829,0.991,0.052,-0.068,-0.101,2333,0,189,2469,115,917,25,631,1,0.000,3,0,0.104,0.002,0.100,0.020,0.020,-0.146,-0.088,0.988,0.000,-0.002,-0.004,0.000,0.000,0.000,0.000,1,2,0,2,7,255,1224,300,808,1224
stim,815,815,0,796598.829,0.991,0.052,-0.068,-0.101,2343,0,176,2461,109,920,28,621,1,0.000,3,0,0.049,0.004,0.040,0.020,0.020,-0.146,-0.086,0.989,0.004,-0.002,-0.002,0.000,0.000,0.000,0.000,1,2,0,2,7,255,1224,300,813,1224
stim,815,815,0,796603.829,0.991,0.052,-0.068,-0.101,2347,0,174,2462,107,931,29,631,1,0.000,3,0,0.130,0.007,0.100,0.020,0.080,-0.146,-0.087,0.988,0.004,0.006,0.004,0.000,0.000,0.000,0.000,1,2,0,2,7,255,1224,300,818,1224
stim,815,815,0,796608.829,0.991,0.052,-0.068,-0.101,2353,0,172,2467,115,920,27,624,1,0.000,3,0,0.060,0.007,0.040,-0.040,0.020,-0.146,-0.087,0.987,0.004,0.006,0.004,0.000,0.000,0.000,0.000,1,2,0,2,7,255,1224,300,823,1224
stim,815,815,0,796613.829,0.991,0.052,-0.068,-0.101,2345,0,173,2470,112,927,28,624,1,0.000,3,0,0.110,0.002,0.100,-0.040,0.020,-0.147,-0.088,0.988,0.000,0.002,0.000,0.000,0.000,0.000,0.000,1,2,0,2,7,255,1224,300,828,1224
stim,831,831,0,796618.829,0.991,0.052,-0.068,-0.101,2344,0,179,2473,108,921,33,620,1,0.000,3,0,0.104,0.003,0.100,0.020,0.020,-0.146,-0.086,0.988,-0.002,0.002,-0.002,0.000,0.000,0.000,0.000,1,2,0,2,7,255,1224,300,833,1224
stim,831,831,0,796623.829,0.991,0.052,-0.068,-0.101,2359,0,169,2473,109,929,33,623,1,0.000,3,0,0.104,0.010,0.100,0.020,0.020,-0.146,-0.087,0.989,-0.002,0.010,0.000,0.000,0.000,0.000,0.000,1,2,0,2,7,255,1224,300,838,1224
stim,848,848,0,796628.829,0.991,0.052,-0.068,-0.101,2355,0,171,2474,115,921,30,620,1,0.000,3,0,0.130,0.010,0.100,0.020,0.080,-0.146,-0.086,0.989,0.000,0.010,0.012,0.000,0.000,0.000,0.000,1,2,0,2,7,255,1224,300,843,1224
stim,848,848,0,796633.829,0.991,0.052,-0.068,-0.101,2343,0,181,2464,111,921,33,621,1,0.000,3,0,0.110,0.012,0.100,-0.040,0.020,-0.146,-0.087,0.989,0.006,0.010,0.012,0.000,0.000,0.000,0.000,1,2,0,2,7,255,1224,300,848,1224
stim,848,848,0,796638.829,0.991,0.052,-0.068,-0.101,2341,0,171,2477,110,923,39,622,1,0.000,3,0,0.110,0.013,0.100,0.020,-0.040,-0.146,-0.086,0.989,0.004,0.012,0.012,0.000,0.000,0.000,0.000,1,2,0,2,7,255,1224,300,853,1224
stim,848,848,0,796643.829,0.991,0.052,-0.068,-0.101,2335,0,179,2469,109,923,27,631,1,0.000,3,0,0.134,0.007,0.100,-0.040,0.080,-0.147,-0.087,0.988,0.004,0.006,0.008,0.000,0.000,0.000,0.000,1,2,0,2,7,255,1224,300,858,1224
stim,896,896,0,796648.829,0.991,0.052,-0.068,-0.101,2345,0,175,2473,111,925,27,631,1,0.000,3,0,0.134,0.007,0.040,-0.100,0.080,-0.146,-0.089,0.989,0.004,0.006,0.008,0.000,0.000,0.000,0.000,1,2,0,2,7,255,1224,300,863,1224
stim,896,896,0,796653.829,0.991,0.052,-0.068,-0.101,2345,0,173,2470,117,922,33,621,1,0.000,3,0,0.110,0.008,0.040,-0.100,0.020,-0.147,-0.086,0.988,-0.006,0.006,0.004,0.000,0.000,0.000,0.000,1,2,0,2,7,255,1224,300,868,1224
stim,896,896,0,796658.829,0.991,0.052,-0.068,-0.101,2346,0,172,2475,112,926,29,622,1,0.000,3,0,0.060,0.004,0.040,-0.040,0.020,-0.146,-0.088,0.988,0.000,-0.004,0.004,0.000,0.000,0.000,0.000,1,2,0,2,7,255,1224,300,873,1224
stim,896,896,0,796663.830,0.991,0.052,-0.068,-0.101,2344,0,171,2489,115,923,29,629,1,0.000,3,0,0.115,0.002,0.100,-0.040,-0.040,-0.146,-0.088,0.989,0.000,-0.002,0.004,0.000,0.000,0.000,0.000,1,2,0,2,7,255,1224,300,878,1224
stim,896,896,0,796668.829,0.991,0.052,-0.068,-0.101,2336,1,177,2464,109,926,28,631,1,0.000,3,0,0.115,0.003,0.100,-0.040,-0.040,-0.146,-0.087,0.987,0.002,-0.002,0.004,0.000,0.000,0.000,0.000,1,2,0,2,7,255,1224,300,883,1224
stim,896,896,0,796673.829,0.991,0.052,-0.068,-0.101,2336,2,179,2464,107,926,29,629,1,0.000,3,0,0.115,0.002,0.100,-0.040,-0.040,-0.146,-0.087,0.987,0.002,0.000,-0.006,0.000,0.000,0.000,0.000,1,2,0,2,7,255,1224,300,888,1224
stim,918,918,0,796678.829,0.991,0.052,-0.068,-0.101,2349,2,175,2473,117,925,29,628,1,0.000,3,0,0.115,0.004,0.040,-0.040,-0.100,-0.147,-0.087,0.988,-0.002,0.004,-0.006,0.000,0.000,0.000,0.000,1,2,0,2,7,255,1224,300,893,1224
stim,918,918,0,796683.829,0.991,0.052,-0.068,-0.101,2341,0,176,2472,107,926,30,627,1,0.000,3,0,0.115,0.003,0.100,-0.040,-0.040,-0.146,-0.087,0.988,-0.002,0.002,0.004,0.000,0.000,0.000,0.000,1,2,0,2,7,255,1224,300,898,1224
stim,918,918,0,796688.829,0.991,0.052,-0.068,-0.101,2357,0,175,2485,107,923,29,623,1,0.000,3,0,0.069,0.002,0.040,-0.040,-0.040,-0.146,-0.087,0.988,0.000,0.002,0.004,0.000,0.000,0.000,0.000,1,2,0,2,7,255,1224,300,903,1224
stim,918,918,0,796693.829,0.991,0.052,-0.068,-0.101,2351,1,174,2475,113,925,28,628,1,0.000,3,0,0.060,0.004,0.040,-0.040,0.020,-0.146,-0.087,0.988,0.004,0.002,0.002,0.000,0.000,0.000,0.000,1,2,0,2,7,255,1224,300,908,1224
stim,918,918,0,796698.829,0.991,0.052,-0.068,-0.101,2344,1,173,2475,115,923,27,629,1,0.000,3,0,0.143,0.004,0.100,0.020,-0.100,-0.146,-0.088,0.986,0.004,0.002,0.002,0.000,0.000,0.000,0.000,1,2,0,2,7,255,1224,300,913,1224
stim,918,918,0,796703.829,0.991,0.052,-0.068,-0.101,2351,0,176,2461,111,925,25,628,1,0.000,3,0,0.060,0.002,0.040,0.020,-0.040,-0.146,-0.088,0.988,0.000,-0.002,0.002,0.000,0.000,0.000,0.000,1,2,0,2,7,255,1224,300,918,1224
stim,927,927,0,796708.830,0.991,0.052,-0.068,-0.101,2342,0,179,2463,115,927,33,624,1,0.000,3,0,0.115,0.003,0.100,-0.040,-0.040,-0.147,-0.087,0.988,-0.002,-0.002,0.004,0.000,0.000,0.000,0.000,1,2,0,2,7,255,1224,300,923,1224
stim,927,927,1,796713.829,0.991,0.052,-0.068,-0.101,2342,0,175,2479,117,925,27,631,1,0.000,3,0,0.115,0.002,0.040,-0.040,-0.100,-0.146,-0.087,0.988,0.000,0.002,0.004,0.000,0.000,0.000,0.000,1,2,1,2,7,255,1224,300,928,1224
stim,927,927,1,796718.829,0.991,0.052,-0.068,-0.101,2348,0,179,2475,111,926,27,631,1,0.000,3,0,0.166,0.006,0.040,0.020,-0.160,-0.146,-0.087,0.989,0.004,0.004,0.004,0.000,0.000,0.000,0.000,1,2,1,2,7,255,1224,300,933,1224
stim,927,927,1,796723.829,0.991,0.052,-0.068,-0.101,2336,0,173,2464,115,921,27,624,1,0.000,3,0,0.060,0.006,0.040,0.020,-0.040,-0.146,-0.087,0.987,0.004,0.004,-0.002,0.000,0.000,0.000,0.000,1,2,1,2,7,255,1224,300,938,1224
stim,945,945,1,796728.829,0.991,0.052,-0.068,-0.101,2343,0,171,2467,109,925,35,623,1,0.000,3,0,0.110,0.007,0.040,0.020,-0.100,-0.146,-0.085,0.989,0.004,0.006,0.004,0.000,0.000,0.000,0.000,1,2,1,2,7,255,1224,300,943,1224
stim,945,945,1,796733.829,0.991,0.052,-0.068,-0.101,2344,0,174,2477,109,925,27,624,1,0.000,3,0,0.049,0.010,-0.020,0.020,-0.040,-0.145,-0.087,0.988,0.006,0.008,-0.004,0.000,0.000,0.000,0.000,1,2,1,2,7,255,1224,300,948,1224
stim,960,960,1,796738.829,0.991,0.052,-0.068,-0.101,2335,0,174,2473,113,922,31,621,1,0.000,3,0,0.049,0.010,-0.020,0.020,-0.040,-0.147,-0.088,0.988,0.006,0.008,0.000,0.000,0.000,0.000,0.000,1,2,1,2,7,255,1224,300,953,1224
stim,960,960,1,796743.829,0.991,0.052,-0.068,-0.101,2343,0,173,2464,117,923,27,620,1,0.000,3,0,0.049,0.009,-0.020,0.020,-0.040,-0.147,-0.086,0.988,-0.004,0.008,0.000,0.000,0.000,0.000,0.000,1,2,1,2,7,255,1224,300,958,1224
stim,960,960,1,796748.829,0.991,0.052,-0.068,-0.101,2347,0,170,2467,111,923,33,631,1,0.000,3,0,0.166,0.013,0.040,0.020,-0.160,-0.147,-0.085,0.988,-0.008,0.010,0.000,0.000,0.000,0.000,0.000,1,2,1,2,7,255,1224,300,963,1224
stim,979,979,1,796753.829,0.991,0.052,-0.068,-0.101,2345,0,173,2461,109,923,26,623,1,0.000,3,0,0.401,0.025,-0.020,0.020,-0.400,-0.145,-0.084,0.989,-0.008,0.024,0.004,0.000,0.000,0.000,0.000,1,2,1,2,7,255,1224,300,968,1224
stim,979,979,1,796758.829,0.991,0.052,-0.068,-0.101,2332,0,171,2457,114,919,27,619,1,0.000,3,0,0.462,0.025,-0.460,0.020,-0.040,-0.145,-0.096,0.986,0.008,0.024,-0.002,0.000,0.000,0.000,0.000,1,2,1,2,7,255,1224,300,973,1224
stim,980,980,1,796763.829,0.991,0.052,-0.068,-0.101,2343,0,175,2457,108,916,33,621,1,0.000,3,0,0.892,0.077,-0.140,-0.040,0.880,-0.146,-0.096,0.982,0.014,-0.076,-0.010,0.000,0.000,0.000,0.000,1,2,1,2,7,255,1224,300,978,1224
stim,980,980,1,796768.830,0.991,0.052,-0.068,-0.101,2345,0,173,2469,115,919,33,621,1,0.000,3,0,0.824,0.077,0.820,0.020,0.080,-0.152,-0.069,0.990,0.014,-0.076,-0.010,0.000,0.000,0.000,0.000,1,2,1,2,7,255,1224,300,983,1224
stim,980,980,1,796773.829,0.991,0.052,-0.068,-0.101,2345,0,173,2455,107,917,29,619,1,0.000,3,0,1.409,0.077,-0.200,0.200,-1.380,-0.151,-0.095,0.992,-0.022,-0.074,0.010,0.000,0.000,0.000,0.000,1,2,1,2,7,255,1224,300,988,1224
stim,980,980,1,796778.829,0.991,0.052,-0.068,-0.101,2343,0,175,2464,117,924,28,625,1,0.000,3,0,0.646,0.077,0.160,-0.280,0.560,-0.131,-0.099,0.990,-0.022,-0.074,0.010,0.000,0.000,0.000,0.000,1,2,1,2,7,255,1224,300,993,1224
stim,1012,1012,1,796783.829,0.991,0.052,-0.068,-0.101,2350,0,171,2469,115,921,27,627,1,0.000,3,0,0.749,0.077,-0.640,0.380,0.080,-0.151,-0.072,0.984,-0.022,-0.074,0.006,0.000,0.000,0.000,0.000,1,2,1,2,7,255,1224,300,998,1224
stim,1012,1012,1,796788.829,0.991,0.052,-0.068,-0.101,2325,0,175,2463,123,923,36,628,1,0.000,3,0,1.719,0.076,0.760,-0.600,1.420,-0.148,-0.107,0.985,0.016,-0.074,-0.004,0.000,0.000,0.000,0.000,1,2,1,2,7,255,1224,300,1003,1224
stim,1012,1012,1,796793.829,0.991,0.052,-0.068,-0.101,2347,0,179,2471,117,923,34,629,1,0.000,3,0,1.775,0.154,-0.460,0.560,-1.620,-0.151,-0.063,0.994,-0.080,0.132,-0.004,0.000,0.000,0.000,0.000,1,2,1,2,7,255,1224,300,1008,1224
stim,1012,1012,1,796798.829,0.991,0.052,-0.068,-0.101,2355,0,178,2477,112,931,27,623,1,0.000,3,0,1.686,0.173,1.200,-0.720,0.940,-0.141,-0.105,0.981,0.016,-0.172,-0.004,0.000,0.000,0.000,0.000,1,2,1,2,7,255,1224,300,1013,1224
stim,1012,1012,1,796803.829,0.991,0.052,-0.068,-0.101,2345,0,178,2467,114,923,31,629,1,0.000,3,0,2.708,0.052,-1.680,1.300,-1.680,-0.151,-0.084,0.998,-0.038,0.036,0.042,0.000,0.000,0.000,0.000,1,2,1,2,7,255,1224,300,1018,1224
stim,1012,1012,1,796808.829,0.991,0.052,-0.068,-0.101,2344,0,173,2464,111,929,33,623,1,0.000,3,0,4.123,0.090,2.600,-2.360,2.160,-0.130,-0.075,0.978,0.082,0.036,-0.060,0.000,0.000,0.000,0.000,1,2,1,2,7,255,1224,300,1023,1224
stim,1044,1044,1,796813.829,0.991,0.052,-0.068,-0.101,2348,0,172,2479,109,929,26,633,1,0.000,3,0,3.984,0.052,-1.860,3.500,-0.400,-0.168,-0.114,0.996,-0.038,0.036,0.102,0.000,0.000,0.000,0.000,1,2,1,2,7,255,1224,300,1028,1224
stim,1044,1044,1,796818.829,0.991,0.052,-0.068,-0.101,2347,0,173,2477,113,926,29,623,1,0.000,3,0,4.255,0.148,-0.200,-4.140,-0.960,-0.134,-0.062,0.992,0.066,0.132,-0.002,0.000,0.000,0.000,0.000,1,2,1,2,7,255,1224,300,1033,1224
stim,1044,1044,1,796823.829,0.991,0.052,-0.068,-0.101,2345,0,171,2479,117,921,28,630,1,0.000,3,0,4.193,0.057,2.240,3.320,1.240,-0.147,-0.088,0.961,-0.040,-0.040,-0.002,0.000,0.000,0.000,0.000,1,2,1,2,7,255,1224,300,1038,1224
stim,1044,1044,1,796828.829,0.991,0.052,-0.068,-0.101,2355,0,172,2474,119,923,29,625,1,0.000,3,0,1.620,0.043,-0.880,-1.020,-0.900,-0.154,-0.110,1.026,0.016,-0.040,-0.002,0.000,0.000,0.000,0.000,1,2,1,2,7,255,1224,300,1043,1224
stim,1044,1044,1,796833.829,0.991,0.052,-0.068,-0.101,2342,0,171,2471,117,925,29,621,1,0.000,3,0,1.677,0.043,-1.120,-1.020,-0.720,-0.139,-0.076,0.967,0.016,-0.040,-0.224,0.000,0.000,0.000,0.000,1,2,1,2,7,255,1224,300,1048,1224
stim,1044,1044,1,796838.829,0.991,0.052,-0.068,-0.101,2355,0,173,2479,119,922,30,620,1,0.000,3,0,1.943,0.098,0.820,1.120,1.360,-0.136,-0.068,0.982,0.018,0.096,-0.084,0.000,0.000,0.000,0.000,1,2,1,2,7,255,1224,300,1053,1224
stim,1055,1055,1,796843.829,0.991,0.052,-0.068,-0.101,2344,0,177,2469,120,925,30,624,1,0.000,3,0,0.931,0.098,0.820,-0.040,0.440,-0.153,-0.094,1.000,0.018,0.096,-0.084,0.000,0.000,0.000,0.000,1,2,1,2,7,255,1224,300,1058,1224
stim,1055,1055,1,796848.829,0.991,0.052,-0.068,-0.101,2336,0,170,2468,123,925,29,623,1,0.000,3,0,0.766,0.076,-0.140,-0.220,-0.720,-0.154,-0.104,0.989,-0.034,-0.068,0.032,0.000,0.000,0.000,0.000,1,2,1,2,7,255,1224,300,1063,1224
stim,1087,1087,1,796853.829,0.991,0.052,-0.068,-0.101,2336,0,171,2467,117,920,27,625,1,0.000,3,0,0.809,0.076,-0.520,-0.220,-0.580,-0.149,-0.093,0.985,-0.034,-0.068,0.032,0.000,0.000,0.000,0.000,1,2,1,2,7,255,1224,300,1068,1224
stim,1087,1087,1,796858.829,0.991,0.052,-0.068,-0.101,2335,0,173,2475,117,927,27,621,1,0.000,3,0,0.357,0.064,-0.280,0.020,-0.220,-0.146,-0.084,0.989,-0.014,-0.062,0.004,0.000,0.000,0.000,0.000,1,2,1,2,7,255,1224,300,1073,1224
stim,1087,1087,1,796863.829,0.991,0.052,-0.068,-0.101,2353,0,168,2481,115,927,30,623,1,0.000,3,0,0.162,0.034,0.100,0.080,-0.100,-0.145,-0.081,0.987,0.000,0.034,-0.020,0.000,0.000,0.000,0.000,1,2,1,2,7,255,1224,300,1078,1224
stim,1087,1087,1,796868.829,0.991,0.052,-0.068,-0.101,2336,0,171,2461,112,925,27,623,1,0.000,3,0,0.343,0.034,0.340,-0.040,0.020,-0.143,-0.086,0.985,0.004,0.034,-0.020,0.000,0.000,0.000,0.000,1,2,1,2,7,255,1224,300,1083,1224
stim,1087,1087,1,796873.829,0.991,0.052,-0.068,-0.101,2336,0,171,2471,109,922,26,625,1,0.000,3,0,0.292,0.031,0.280,0.020,0.080,-0.143,-0.086,0.988,0.026,0.016,-0.020,0.000,0.000,0.000,0.000,1,2,1,2,7,255,1224,300,1088,1224
stim,1087,1087,1,796878.829,0.991,0.052,-0.068,-0.101,2341,0,171,2463,95,923,27,622,1,0.000,3,0,0.314,0.031,0.280,0.020,0.140,-0.146,-0.085,0.990,0.026,0.016,-0.002,0.000,0.000,0.000,0.000,1,2,1,2,7,255,1224,300,1093,1224
stim,1103,1103,1,796883.829,0.991,0.052,-0.068,-0.101,2341,0,171,2483,105,925,27,621,1,0.000,3,0,0.180,0.016,0.160,0.020,0.080,-0.147,-0.088,0.988,0.008,0.014,0.000,0.000,0.000,0.000,0.000,1,2,1,2,7,255,1224,300,1098,1224
stim,1103,1103,1,796888.829,0.991,0.052,-0.068,-0.101,2347,0,173,2469,103,925,29,622,1,0.000,3,0,0.092,0.009,-0.080,0.020,-0.040,-0.146,-0.089,0.988,0.004,-0.008,0.004,0.000,0.000,0.000,0.000,1,2,1,2,7,255,1224,300,1103,1224
stim,1103,1103,1,796893.829,0.991,0.052,-0.068,-0.101,2346,0,167,2459,107,917,26,623,1,0.000,3,0,0.147,0.009,-0.140,0.020,-0.040,-0.146,-0.087,0.989,0.004,-0.008,0.004,0.000,0.000,0.000,0.000,1,2,1,2,7,255,1224,300,1108,1224
stim,1103,1103,1,796898.829,0.991,0.052,-0.068,-0.101,2353,0,169,2475,75,927,24,618,1,0.000,3,0,0.060,0.011,0.040,0.020,-0.040,-0.146,-0.088,0.987,0.004,-0.010,0.004,0.000,0.000,0.000,0.000,1,2,1,2,7,255,1224,300,1113,1224
stim,1120,1120,1,796903.829,0.991,0.052,-0.068,-0.101,2336,0,169,2469,116,918,29,619,1,0.000,3,0,0.143,0.004,0.100,0.020,-0.100,-0.146,-0.087,0.986,0.004,0.002,-0.006,0.000,0.000,0.000,0.000,1,2,1,2,7,255,1224,300,1118,1224
stim,1120,1120,1,796908.829,0.991,0.052,-0.068,-0.101,2343,0,171,2475,153,922,35,619,1,0.000,3,0,0.170,0.003,0.040,-0.040,-0.160,-0.146,-0.086,0.989,0.002,0.002,-0.006,0.000,0.000,0.000,0.000,1,2,1,2,7,255,1224,300,1123,1224
stim,1135,1135,1,796913.829,0.991,0.052,-0.068,-0.101,2335,0,169,2470,151,931,30,615,1,0.000,3,0,0.237,0.003,-0.080,-0.040,-0.220,-0.148,-0.088,0.987,0.002,0.002,-0.004,0.000,0.000,0.000,0.000,1,2,1,2,7,255,1224,300,1128,1224
stim,1135,1135,1,796918.829,0.991,0.052,-0.068,-0.101,2335,0,167,2471,251,923,29,615,1,0.000,3,0,0.214,0.017,-0.140,0.020,-0.160,-0.148,-0.092,0.987,-0.010,-0.014,0.000,0.000,0.000,0.000,0.000,1,2,1,2,7,255,1224,300,1133,1224
stim,1135,1135,1,796923.829,0.991,0.052,-0.068,-0.101,2339,0,167,2473,211,920,27,620,1,0.000,3,0,0.134,0.034,-0.080,-0.040,-0.100,-0.148,-0.090,0.987,-0.012,-0.032,-0.002,0.000,0.000,0.000,0.000,1,2,1,2,7,255,1224,300,1138,1224
stim,1135,1135,1,796928.829,0.991,0.052,-0.068,-0.101,2343,0,171,2469,226,923,29,617,1,0.000,3,0,0.092,0.034,-0.080,-0.040,0.020,-0.147,-0.089,0.989,-0.010,-0.032,0.000,0.000,0.000,0.000,0.000,1,2,1,2,7,255,1224,300,1143,1224
stim,1151,1151,1,796933.829,0.991,0.052,-0.068,-0.101,2345,0,166,2475,261,920,29,615,1,0.000,3,0,0.110,0.018,0.040,-0.100,0.020,-0.146,-0.088,0.986,-0.004,-0.018,-0.002,0.000,0.000,0.000,0.000,1,2,1,2,7,255,1224,300,1148,1224
stim,1151,1151,1,796938.829,0.991,0.052,-0.068,-0.101,2342,0,165,2472,217,920,33,614,1,0.000,3,0,0.235,0.006,0.160,-0.100,0.140,-0.145,-0.087,0.989,0.000,-0.006,0.010,0.000,0.000,0.000,0.000,1,2,1,2,7,255,1224,300,1153,1224
stim,1151,1151,1,796943.829,0.991,0.052,-0.068,-0.101,2335,0,169,2461,270,915,35,616,1,0.000,3,0,0.151,0.015,0.100,0.080,0.080,-0.145,-0.086,0.987,0.014,0.006,-0.010,0.000,0.000,0.000,0.000,1,2,1,2,7,255,1224,300,1158,1224
stim,1151,1151,1,796948.829,0.991,0.052,-0.068,-0.101,2343,0,167,2463,291,924,28,613,1,0.000,3,0,0.183,0.021,0.040,0.080,-0.160,-0.146,-0.086,0.987,0.014,0.016,-0.010,0.000,0.000,0.000,0.000,1,2,1,2,7,255,1224,300,1163,1224
stim,1183,1183,1,796953.829,0.991,0.052,-0.068,-0.101,2343,0,160,2477,397,921,27,615,1,0.000,3,0,0.162,0.017,-0.020,0.020,-0.160,-0.147,-0.089,0.986,0.006,0.016,-0.010,0.000,0.000,0.000,0.000,1,2,1,2,7,255,1224,300,1168,1224
stim,1183,1183,1,796958.829,0.991,0.052,-0.068,-0.101,2349,0,165,2477,359,919,27,621,1,0.000,3,0,0.098,0.022,-0.080,-0.040,-0.040,-0.147,-0.090,0.987,-0.004,-0.022,-0.010,0.000,0.000,0.000,0.000,1,2,1,2,7,255,1224,300,1173,1224
stim,1183,1183,1,796963.829,0.991,0.052,-0.068,-0.101,2339,0,167,2464,462,919,29,622,1,0.000,3,0,0.177,0.022,0.040,-0.100,0.140,-0.144,-0.087,0.988,-0.004,-0.022,-0.002,0.000,0.000,0.000,0.000,1,2,1,2,7,255,1224,300,1178,1224
stim,1183,1183,1,796968.830,0.991,0.052,-0.068,-0.101,2347,0,167,2483,232,919,27,617,1,0.000,3,0,0.338,0.024,0.160,-0.220,0.200,-0.142,-0.084,0.989,0.022,0.010,-0.002,0.000,0.000,0.000,0.000,1,2,1,2,7,255,1224,300,1183,1224
stim,1183,1183,1,796973.829,0.991,0.052,-0.068,-0.101,2345,0,166,2459,253,917,27,619,1,0.000,3,0,0.481,0.055,0.220,-0.340,0.260,-0.141,-0.083,0.989,0.040,0.038,-0.002,0.000,0.000,0.000,0.000,1,2,1,2,7,255,1224,300,1188,1224
stim,1183,1183,1,796978.829,0.991,0.052,-0.068,-0.101,2345,0,157,2473,469,923,27,619,1,0.000,3,0,0.257,0.062,0.160,0.020,0.200,-0.144,-0.083,0.989,0.040,0.048,-0.002,0.000,0.000,0.000,0.000,1,2,1,2,7,255,1224,300,1193,1224
stim,1199,1199,1,796983.829,0.991,0.052,-0.068,-0.101,2335,0,163,2463,523,919,26,616,1,0.000,3,0,0.428,0.051,-0.020,0.260,-0.340,-0.150,-0.087,0.989,0.018,0.048,0.004,0.000,0.000,0.000,0.000,1,2,1,2,7,255,1224,300,1198,1224
stim,1199,1199,1,796988.829,0.991,0.052,-0.068,-0.101,2356,0,165,2472,489,924,30,611,1,0.000,3,0,0.705,0.023,-0.140,0.260,-0.640,-0.150,-0.092,0.988,-0.022,-0.008,0.012,0.000,0.000,0.000,0.000,1,2,1,2,7,255,1224,300,1203,1224
stim,1215,1215,1,796993.829,0.991,0.052,-0.068,-0.101,2336,0,159,2467,647,924,27,615,1,0.000,3,0,0.343,0.039,0.040,0.020,-0.340,-0.145,-0.091,0.987,-0.022,-0.032,0.012,0.000,0.000,0.000,0.000,1,2,1,2,7,255,1224,300,1208,1224
stim,1215,1215,1,796998.829,0.991,0.052,-0.068,-0.101,2345,0,158,2468,508,919,27,619,1,0.000,3,0,0.264,0.038,0.220,-0.040,0.140,-0.141,-0.088,0.987,0.020,-0.032,-0.006,0.000,0.000,0.000,0.000,1,2,1,2,7,255,1224,300,1213,1224
stim,1215,1215,1,797003.829,0.991,0.052,-0.068,-0.101,2336,0,166,2461,477,912,27,617,1,0.000,3,0,0.352,0.030,0.160,-0.280,0.140,-0.146,-0.089,0.986,0.020,-0.022,-0.014,0.000,0.000,0.000,0.000,1,2,1,2,7,255,1224,300,1218,1224
stim,1215,1215,1,797008.829,0.991,0.052,-0.068,-0.101,2344,0,165,2460,637,919,29,619,1,0.000,3,0,0.193,0.022,0.040,-0.160,-0.100,-0.152,-0.091,0.986,0.002,-0.022,-0.014,0.000,0.000,0.000,0.000,1,2,1,2,7,255,1224,300,1223,1224
stim,1231,1231,0,797013.829,0.991,0.052,-0.068,-0.101,2348,0,158,2477,523,919,26,613,1,0.000,3,0,0.110,0.071,-0.020,-0.100,-0.040,-0.154,-0.095,0.987,-0.050,-0.050,-0.008,0.000,0.000,0.000,0.000,1,2,0,2,7,255,1224,300,4,1224
stim,1231,1231,0,797018.829,0.991,0.052,-0.068,-0.101,2335,0,168,2474,741,923,28,619,1,0.000,3,0,0.296,0.077,0.220,0.140,0.140,-0.152,-0.093,0.989,-0.050,-0.058,0.012,0.000,0.000,0.000,0.000,1,2,0,2,7,255,1224,300,9,1224
stim,1247,1247,0,797023.829,0.991,0.052,-0.068,-0.101,2336,0,160,2469,451,931,27,613,1,0.000,3,0,0.393,0.068,0.340,0.140,0.140,-0.144,-0.084,0.988,-0.036,-0.058,0.012,0.000,0.000,0.000,0.000,1,2,0,2,7,255,1224,300,14,1224
stim,1247,1247,0,797028.829,0.991,0.052,-0.068,-0.101,2339,0,167,2479,415,920,31,617,1,0.000,3,0,0.134,0.041,0.100,0.080,-0.040,-0.140,-0.083,0.988,0.020,0.036,-0.004,0.000,0.000,0.000,0.000,1,2,0,2,7,255,1224,300,19,1224
stim,1247,1247,0,797033.829,0.991,0.052,-0.068,-0.101,2344,0,165,2474,519,921,27,611,1,0.000,3,0,0.308,0.055,-0.200,0.080,-0.220,-0.142,-0.085,0.986,0.042,0.036,-0.010,0.000,0.000,0.000,0.000,1,2,0,2,7,255,1224,300,24,1224
stim,1247,1247,0,797038.829,0.991,0.052,-0.068,-0.101,2335,0,169,2475,523,927,25,614,1,0.000,3,0,0.162,0.049,-0.080,0.020,0.140,-0.145,-0.088,0.989,0.042,0.026,-0.010,0.000,0.000,0.000,0.000,1,2,0,2,7,255,1224,300,29,1224
stim,1247,1247,0,797043.829,0.991,0.052,-0.068,-0.101,2357,0,169,2472,531,919,30,621,1,0.000,3,0,0.358,0.030,-0.020,-0.160,0.320,-0.145,-0.086,0.989,0.022,0.020,0.004,0.000,0.000,0.000,0.000,1,2,0,2,7,255,1224,300,34,1224
stim,1295,1295,0,797048.829,0.991,0.052,-0.068,-0.101,2357,0,173,2475,472,925,29,621,1,0.000,3,0,0.208,0.027,0.040,-0.040,0.200,-0.144,-0.084,0.989,0.018,0.020,0.006,0.000,0.000,0.000,0.000,1,2,0,2,7,255,1224,300,39,1224
stim,1295,1295,0,797053.829,0.991,0.052,-0.068,-0.101,2345,0,173,2468,490,923,33,617,1,0.000,3,0,0.214,0.042,0.160,0.020,0.140,-0.143,-0.083,0.986,0.018,0.038,0.004,0.000,0.000,0.000,0.000,1,2,0,2,7,255,1224,300,44,1224
stim,1295,1295,0,797058.829,0.991,0.052,-0.068,-0.101,2349,0,168,2475,407,921,29,620,1,0.000,3,0,0.482,0.042,0.220,0.200,0.380,-0.146,-0.087,0.986,0.018,0.038,-0.022,0.000,0.000,0.000,0.000,1,2,0,2,7,255,1224,300,49,1224
stim,1295,1295,0,797063.829,0.991,0.052,-0.068,-0.101,2343,0,173,2461,381,929,27,625,1,0.000,3,0,0.395,0.006,0.220,0.200,0.260,-0.153,-0.094,0.988,0.006,0.002,-0.022,0.000,0.000,0.000,0.000,1,2,0,2,7,255,1224,300,54,1224
stim,1295,1295,0,797068.829,0.991,0.052,-0.068,-0.101,2355,0,174,2477,333,919,29,625,1,0.000,3,0,0.628,0.090,0.100,-0.220,-0.580,-0.158,-0.099,0.994,-0.044,-0.078,0.018,0.000,0.000,0.000,0.000,1,2,0,2,7,255,1224,300,59,1224
stim,1295,1295,0,797073.829,0.991,0.052,-0.068,-0.101,2342,0,168,2473,337,918,30,621,1,0.000,3,0,1.022,0.090,-0.080,-0.340,-0.960,-0.144,-0.088,0.988,-0.044,-0.078,0.018,0.000,0.000,0.000,0.000,1,2,0,2,7,255,1224,300,64,1224
stim,1311,1311,0,797078.829,0.991,0.052,-0.068,-0.101,2343,0,168,2472,276,923,31,617,1,0.000,3,0,0.405,0.028,0.100,-0.100,0.380,-0.128,-0.066,0.981,0.028,-0.002,-0.004,0.000,0.000,0.000,0.000,1,2,0,2,7,255,1224,300,69,1224
stim,1311,1311,0,797083.829,0.991,0.052,-0.068,-0.101,2340,0,175,2477,237,924,31,631,1,0.000,3,0,2.131,0.072,0.400,0.680,1.980,-0.144,-0.080,0.980,0.028,0.066,-0.086,0.000,0.000,0.000,0.000,1,2,0,2,7,255,1224,300,74,1224
stim,1311,1311,0,797088.829,0.991,0.052,-0.068,-0.101,2349,0,169,2463,299,916,27,633,1,0.000,3,0,0.453,0.066,0.160,0.140,-0.400,-0.175,-0.120,1.000,0.000,0.066,-0.086,0.000,0.000,0.000,0.000,1,2,0,2,7,255,1224,300,79,1224
stim,1311,1311,0,797093.829,0.991,0.052,-0.068,-0.101,2353,0,173,2475,227,923,31,627,1,0.000,3,0,3.420,0.082,-0.520,-1.200,-3.160,-0.147,-0.097,0.996,0.000,-0.082,0.082,0.000,0.000,0.000,0.000,1,2,0,2,7,255,1224,300,84,1224
stim,1311,1311,0,797098.829,0.991,0.052,-0.068,-0.101,2351,0,172,2470,253,922,26,627,1,0.000,3,0,1.736,0.085,0.220,0.080,1.720,-0.106,-0.040,0.967,0.024,-0.082,0.082,0.000,0.000,0.000,0.000,1,2,0,2,7,255,1224,300,89,1224
stim,1311,1311,0,797103.829,0.991,0.052,-0.068,-0.101,2351,0,170,2463,171,923,29,621,1,0.000,3,0,3.798,0.085,1.020,1.660,3.260,-0.164,-0.094,0.986,0.024,-0.082,0.008,0.000,0.000,0.000,0.000,1,2,0,2,7,255,1224,300,94,1224
stim,1327,1327,0,797108.830,0.991,0.052,-0.068,-0.101,2347,0,171,2473,220,931,28,624,1,0.000,3,0,4.095,0.174,-0.820,-1.020,-3.880,-0.176,-0.134,1.017,-0.144,-0.098,0.008,0.000,0.000,0.000,0.000,1,2,0,2,7,255,1224,300,99,1224
stim,1327,1327,0,797113.829,0.991,0.052,-0.068,-0.101,2351,0,179,2469,250,929,33,623,1,0.000,3,0,1.346,0.174,-0.260,-1.320,0.020,-0.111,-0.048,0.969,-0.144,-0.098,0.008,0.000,0.000,0.000,0.000,1,2,0,2,7,255,1224,300,104,1224
stim,1327,1327,0,797118.829,0.991,0.052,-0.068,-0.101,2343,0,177,2461,183,923,29,630,1,0.000,3,0,4.147,0.104,1.500,2.580,2.880,-0.156,-0.086,0.977,-0.102,-0.020,-0.098,0.000,0.000,0.000,0.000,1,2,0,2,7,255,1224,300,109,1224
stim,1327,1327,0,797123.829,0.991,0.052,-0.068,-0.101,2345,0,177,2479,216,920,33,626,1,0.000,3,0,3.681,0.050,-1.300,-1.500,-3.100,-0.152,-0.111,1.023,0.046,-0.020,-0.098,0.000,0.000,0.000,0.000,1,2,0,2,7,255,1224,300,114,1224
stim,1343,1343,0,797128.829,0.991,0.052,-0.068,-0.101,2343,0,181,2460,236,929,33,631,1,0.000,3,0,2.435,0.022,0.460,-0.720,2.280,-0.137,-0.059,0.953,-0.008,-0.020,-0.098,0.000,0.000,0.000,0.000,1,2,0,2,7,255,1224,300,119,1224
stim,1343,1343,0,797133.829,0.991,0.052,-0.068,-0.101,2343,0,171,2473,218,927,26,628,1,0.000,3,0,3.106,0.196,0.760,2.400,-1.820,-0.162,-0.117,1.007,-0.008,-0.196,0.234,0.000,0.000,0.000,0.000,1,2,0,2,7,255,1224,300,124,1224
stim,1359,1359,0,797138.829,0.991,0.052,-0.068,-0.101,2343,0,171,2462,217,926,30,623,1,0.000,3,0,3.715,0.254,-1.180,-3.340,1.120,-0.123,-0.058,0.988,-0.008,0.254,-0.058,0.000,0.000,0.000,0.000,1,2,0,2,7,255,1224,300,129,1224
stim,1359,1359,0,797143.829,0.991,0.052,-0.068,-0.101,2349,0,179,2477,206,919,30,619,1,0.000,3,0,3.925,0.286,1.500,3.620,-0.220,-0.178,-0.108,0.968,-0.058,-0.280,-0.058,0.000,0.000,0.000,0.000,1,2,0,2,7,255,1224,300,134,1224
stim,1359,1359,0,797148.829,0.991,0.052,-0.068,-0.101,2355,0,175,2473,211,923,27,624,1,0.000,3,0,3.596,0.258,-1.120,-3.280,-0.960,-0.116,-0.077,1.023,0.166,0.198,-0.058,0.000,0.000,0.000,0.000,1,2,0,2,7,255,1224,300,139,1224
stim,1359,1359,0,797153.829,0.991,0.052,-0.068,-0.101,2351,0,176,2471,219,929,30,627,1,0.000,3,0,2.934,0.287,0.960,2.220,1.660,-0.170,-0.086,0.942,-0.276,-0.080,-0.132,0.000,0.000,0.000,0.000,1,2,0,2,7,255,1224,300,144,1224
stim,1391,1391,0,797158.829,0.991,0.052,-0.068,-0.101,2355,0,173,2476,215,921,29,628,1,0.000,3,0,2.295,0.238,-0.460,-0.900,-2.060,-0.130,-0.097,1.037,0.238,0.000,0.290,0.000,0.000,0.000,0.000,1,2,0,2,7,255,1224,300,149,1224
stim,1391,1391,0,797163.829,0.991,0.052,-0.068,-0.101,2347,0,173,2463,215,931,29,624,1,0.000,3,0,1.837,0.158,0.340,-0.480,1.740,-0.156,-0.076,0.944,-0.158,0.000,-0.414,0.000,0.000,0.000,0.000,1,2,0,2,7,255,1224,300,154,1224
stim,1413,1413,0,797168.829,0.991,0.052,-0.068,-0.101,2345,0,171,2471,215,919,34,619,1,0.000,3,0,1.943,0.124,-0.140,1.360,-1.380,-0.141,-0.097,1.021,0.124,0.000,0.322,0.000,0.000,0.000,0.000,1,2,0,2,7,255,1224,300,159,1224
stim,1413,1413,0,797173.829,0.991,0.052,-0.068,-0.101,2335,0,172,2463,225,923,28,625,1,0.000,3,0,2.086,0.063,0.100,-1.940,0.760,-0.149,-0.082,0.968,-0.058,0.024,-0.196,0.000,0.000,0.000,0.000,1,2,0,2,7,255,1224,300,164,1224
stim,1413,1413,0,797178.829,0.991,0.052,-0.068,-0.101,2343,1,176,2467,205,927,29,631,1,0.000,3,0,2.000,0.046,0.040,1.980,-0.280,-0.144,-0.089,0.997,0.046,-0.002,0.086,0.000,0.000,0.000,0.000,1,2,0,2,7,255,1224,300,169,1224
stim,1413,1413,0,797183.829,0.991,0.052,-0.068,-0.101,2347,0,175,2471,221,933,31,629,1,0.000,3,0,1.726,0.006,-0.200,-1.700,-0.220,-0.148,-0.090,0.986,-0.006,-0.002,-0.012,0.000,0.000,0.000,0.000,1,2,0,2,7,255,1224,300,174,1224
stim,1413,1413,0,797188.829,0.991,0.052,-0.068,-0.101,2357,0,177,2464,211,920,31,623,1,0.000,3,0,1.381,0.014,0.340,1.300,0.320,-0.144,-0.081,0.985,0.014,-0.002,-0.012,0.000,0.000,0.000,0.000,1,2,0,2,7,255,1224,300,179,1224
stim,1413,1413,0,797193.829,0.991,0.052,-0.068,-0.101,2349,0,181,2464,222,922,31,627,1,0.000,3,0,1.087,0.027,-0.460,-0.900,-0.400,-0.150,-0.094,0.993,-0.006,-0.026,-0.012,0.000,0.000,0.000,0.000,1,2,0,2,7,255,1224,300,184,1224
stim,1413,1413,0,797198.829,0.991,0.052,-0.068,-0.101,2358,0,177,2468,192,929,31,625,1,0.000,3,0,0.781,0.064,0.640,0.440,0.080,-0.140,-0.081,0.982,0.014,0.062,-0.040,0.000,0.000,0.000,0.000,1,2,0,2,7,255,1224,300,189,1224
stim,1413,1413,0,797203.829,0.991,0.052,-0.068,-0.101,2347,0,177,2471,212,922,34,621,1,0.000,3,0,0.602,0.025,-0.580,-0.160,0.020,-0.154,-0.088,0.989,-0.012,-0.022,0.024,0.000,0.000,0.000,0.000,1,2,0,2,7,255,1224,300,194,1224
stim,1413,1413,0,797208.829,0.991,0.052,-0.068,-0.101,2349,0,171,2472,215,918,29,621,1,0.000,3,0,0.435,0.051,0.340,-0.160,-0.220,-0.140,-0.093,0.989,0.046,-0.022,0.004,0.000,0.000,0.000,0.000,1,2,0,2,7,255,1224,300,199,1224
stim,1425,1425,0,797213.829,0.991,0.052,-0.068,-0.101,2355,0,173,2475,202,923,37,631,1,0.000,3,0,0.281,0.053,0.100,0.260,-0.040,-0.149,-0.076,0.984,-0.048,-0.022,0.004,0.000,0.000,0.000,0.000,1,2,0,2,7,255,1224,300,204,1224
stim,1425,1425,0,797218.829,0.991,0.052,-0.068,-0.101,2351,1,179,2475,211,923,33,627,1,0.000,3,0,0.395,0.050,-0.200,-0.340,0.020,-0.147,-0.100,0.992,0.028,-0.042,0.004,0.000,0.000,0.000,0.000,1,2,0,2,7,255,1224,300,209,1224
stim,1445,1445,0,797223.829,0.991,0.052,-0.068,-0.101,2353,0,180,2481,212,933,33,622,1,0.000,3,0,0.314,0.063,0.280,0.140,0.020,-0.143,-0.082,0.986,0.028,0.056,-0.032,0.000,0.000,0.000,0.000,1,2,0,2,7,255,1224,300,214,1224
stim,1445,1445,0,797228.829,0.991,0.052,-0.068,-0.101,2350,0,175,2476,209,923,29,632,1,0.000,3,0,0.355,0.061,0.100,0.020,-0.340,-0.150,-0.081,0.988,0.028,0.054,-0.002,0.000,0.000,0.000,0.000,1,2,0,2,7,255,1224,300,219,1224
stim,1446,1446,0,797233.829,0.991,0.052,-0.068,-0.101,2359,0,172,2484,204,928,27,623,1,0.000,3,0,0.110,0.062,0.040,-0.100,0.020,-0.144,-0.102,0.991,0.030,0.054,-0.002,0.000,0.000,0.000,0.000,1,2,0,2,7,255,1224,300,224,1224
stim,1446,1446,0,797238.829,0.991,0.052,-0.068,-0.101,2351,1,173,2479,203,921,29,631,1,0.000,3,0,0.275,0.055,-0.080,-0.040,0.260,-0.145,-0.082,0.985,0.008,0.054,-0.002,0.000,0.000,0.000,0.000,1,2,0,2,7,255,1224,300,229,1224
stim,1457,1457,0,797243.829,0.991,0.052,-0.068,-0.101,2351,0,173,2460,205,925,28,622,1,0.000,3,0,0.539,0.055,0.280,0.020,-0.460,-0.149,-0.078,0.987,0.008,0.054,-0.012,0.000,0.000,0.000,0.000,1,2,0,2,7,255,1224,300,234,1224
stim,1457,1457,0,797248.829,0.991,0.052,-0.068,-0.101,2351,1,176,2483,203,927,29,631,1,0.000,3,0,0.275,0.055,0.160,-0.040,-0.220,-0.144,-0.096,0.991,0.008,0.054,-0.012,0.000,0.000,0.000,0.000,1,2,0,2,7,255,1224,300,239,1224
stim,1487,1487,0,797253.829,0.991,0.052,-0.068,-0.101,2344,1,175,2475,201,926,30,629,1,0.000,3,0,0.648,0.059,-0.400,-0.100,0.500,-0.145,-0.093,0.985,0.028,-0.052,-0.012,0.000,0.000,0.000,0.000,1,2,0,2,7,255,1224,300,244,1224
stim,1487,1487,0,797258.829,0.991,0.052,-0.068,-0.101,2345,0,173,2472,205,925,33,623,1,0.000,3,0,0.235,0.059,0.220,0.080,0.020,-0.150,-0.079,0.985,0.028,-0.052,-0.024,0.000,0.000,0.000,0.000,1,2,0,2,7,255,1224,300,249,1224
stim,1487,1487,0,797263.829,0.991,0.051,-0.068,-0.100,2336,0,175,2469,203,933,29,627,1,0.000,3,0,0.888,0.046,0.520,0.020,-0.720,-0.147,-0.083,0.991,-0.004,0.046,-0.024,0.000,0.000,0.000,0.000,1,2,0,2,7,255,1224,300,254,1224
stim,1487,1487,0,797268.829,0.991,0.052,-0.068,-0.100,2355,0,177,2468,214,923,35,623,1,0.000,3,0,0.286,0.046,-0.280,-0.040,-0.040,-0.141,-0.099,0.991,-0.004,0.046,0.022,0.000,0.000,0.000,0.000,1,2,0,2,7,255,1224,300,259,1224
stim,1487,1487,0,797273.829,0.991,0.052,-0.068,-0.101,2342,0,179,2473,206,928,31,623,1,0.000,3,0,0.921,0.034,-0.520,0.020,0.760,-0.146,-0.090,0.983,0.004,-0.034,0.022,0.000,0.000,0.000,0.000,1,2,0,2,7,255,1224,300,264,1224
stim,1487,1487,0,797278.829,0.991,0.051,-0.068,-0.101,2345,0,179,2464,212,923,35,622,1,0.000,3,0,0.469,0.034,0.460,0.080,-0.040,-0.152,-0.077,0.983,0.004,-0.034,-0.042,0.000,0.000,0.000,0.000,1,2,0,2,7,255,1224,300,269,1224
stim,1520,1520,0,797283.829,0.991,0.051,-0.068,-0.100,2348,0,172,2468,211,924,28,623,1,0.000,3,0,1.105,0.028,0.640,0.020,-0.900,-0.146,-0.084,0.992,0.004,0.028,-0.042,0.000,0.000,0.000,0.000,1,2,0,2,7,255,1224,300,274,1224
stim,1520,1520,0,797288.829,0.991,0.052,-0.068,-0.100,2344,0,179,2469,213,921,34,629,1,0.000,3,0,0.357,0.029,-0.340,-0.040,-0.100,-0.138,-0.098,0.992,0.006,0.028,0.032,0.000,0.000,0.000,0.000,1,2,0,2,7,255,1224,300,279,1224
stim,1520,1520,0,797293.829,0.991,0.052,-0.068,-0.101,2342,0,176,2472,209,925,29,630,1,0.000,3,0,1.156,0.035,-0.580,0.020,1.000,-0.146,-0.090,0.983,0.014,-0.032,0.032,0.000,0.000,0.000,0.000,1,2,0,2,7,255,1224,300,284,1224
stim,1520,1520,0,797298.829,0.991,0.052,-0.068,-0.100,2363,0,171,2473,212,920,31,622,1,0.000,3,0,0.426,0.035,0.280,0.020,0.320,-0.154,-0.081,0.983,0.014,-0.032,-0.038,0.000,0.000,0.000,0.000,1,2,0,2,7,255,1224,300,289,1224
stim,1520,1520,0,797303.829,0.991,0.051,-0.068,-0.100,2336,0,179,2470,207,927,27,625,1,0.000,3,0,1.105,0.020,0.640,0.020,-0.900,-0.148,-0.085,0.990,-0.014,0.014,-0.038,0.000,0.000,0.000,0.000,1,2,0,2,7,255,1224,300,294,1224
stim,1520,1520,0,797308.830,0.991,0.051,-0.068,-0.100,2347,0,181,2475,208,922,35,624,1,0.000,3,0,0.668,0.020,0.100,0.020,-0.660,-0.139,-0.090,0.992,-0.014,0.014,0.018,0.000,0.000,0.000,0.000,1,2,0,2,7,255,1224,300,299,1224
stim,1520,1520,0,797313.829,0.991,0.051,-0.068,-0.100,2348,0,175,2476,209,919,28,633,1,0.000,3,0,0.755,0.062,-0.280,-0.040,0.700,-0.141,-0.089,0.988,0.062,-0.006,0.018,0.000,0.000,0.000,0.000,1,2,0,2,7,255,1224,300,304,1224
stim,1520,1520,0,797318.829,0.991,0.051,-0.068,-0.100,2345,0,175,2481,205,929,27,632,1,0.000,3,0,1.015,0.062,-0.140,-0.100,1.000,-0.152,-0.086,0.986,0.062,-0.006,-0.008,0.000,0.000,0.000,0.000,1,2,0,2,7,255,1224,300,309,1224
stim,1535,1535,0,797323.829,0.991,0.051,-0.068,-0.100,2343,0,181,2461,211,925,33,631,1,0.000,3,0,0.115,0.050,0.100,-0.040,-0.040,-0.155,-0.087,0.987,-0.050,-0.006,-0.008,0.000,0.000,0.000,0.000,1,2,0,2,7,255,1224,300,314,1224
stim,1535,1535,0,797328.829,0.991,0.052,-0.068,-0.100,2351,0,171,2485,217,919,28,631,1,0.000,3,0,0.988,0.051,0.220,0.080,-0.960,-0.146,-0.088,0.987,-0.050,-0.008,-0.012,0.000,0.000,0.000,0.000,1,2,0,2,7,255,1224,300,319,1224
stim,1551,1551,0,797333.829,0.991,0.052,-0.068,-0.100,2344,0,172,2464,213,930,29,623,1,0.000,3,0,0.610,0.013,0.400,0.020,-0.460,-0.140,-0.088,0.988,0.010,-0.008,-0.006,0.000,0.000,0.000,0.000,1,2,0,2,7,255,1224,300,324,1224
stim,1551,1551,0,797338.829,0.991,0.051,-0.068,-0.100,2353,0,171,2477,214,925,38,623,1,0.000,3,0,0.610,0.066,0.220,-0.100,0.560,-0.141,-0.090,0.990,0.066,-0.008,-0.006,0.000,0.000,0.000,0.000,1,2,0,2,7,255,1224,300,329,1224
stim,1551,1551,0,797343.829,0.991,0.051,-0.068,-0.100,2351,0,179,2481,213,933,29,630,1,0.000,3,0,1.022,0.066,-0.140,-0.160,1.000,-0.151,-0.087,0.990,0.066,-0.008,0.010,0.000,0.000,0.000,0.000,1,2,0,2,7,255,1224,300,334,1224
stim,1551,1551,0,797348.829,0.991,0.052,-0.068,-0.100,2344,0,177,2464,215,921,33,625,1,0.000,3,0,0.284,0.037,-0.200,0.020,0.200,-0.153,-0.084,0.986,-0.036,-0.008,0.010,0.000,0.000,0.000,0.000,1,2,0,2,7,255,1224,300,339,1224
stim,1601,1601,0,797353.829,0.991,0.052,-0.068,-0.100,2356,0,177,2477,209,927,35,631,1,0.000,3,0,0.663,0.036,0.280,-0.040,-0.600,-0.149,-0.086,0.985,-0.036,0.004,-0.014,0.000,0.000,0.000,0.000,1,2,0,2,7,255,1224,300,344,1224
stim,1601,1601,0,797358.829,0.991,0.052,-0.068,-0.100,2344,0,177,2463,215,924,37,624,1,0.000,3,0,0.611,0.028,0.400,-0.040,-0.460,-0.145,-0.089,0.989,-0.028,0.004,-0.014,0.000,0.000,0.000,0.000,1,2,0,2,7,255,1224,300,349,1224
stim,1601,1601,0,797363.829,0.991,0.052,-0.068,-0.100,2345,0,175,2462,208,931,33,625,1,0.000,3,0,0.245,0.028,0.100,-0.100,0.200,-0.144,-0.088,0.991,0.028,0.002,0.006,0.000,0.000,0.000,0.000,1,2,0,2,7,255,1224,300,354,1224
stim,1601,1601,0,797368.829,0.991,0.052,-0.068,-0.100,2355,0,172,2475,213,927,35,630,1,0.000,3,0,0.471,0.028,-0.260,-0.100,0.380,-0.147,-0.086,0.989,0.028,0.002,0.012,0.000,0.000,0.000,0.000,1,2,0,2,7,255,1224,300,359,1224
stim,1601,1601,0,797373.829,0.991,0.052,-0.068,-0.100,2342,0,171,2464,208,924,34,627,1,0.000,3,0,0.219,0.004,-0.200,-0.040,0.080,-0.149,-0.086,0.986,0.000,0.004,0.012,0.000,0.000,0.000,0.000,1,2,0,2,7,255,1224,300,364,1224
stim,1601,1601,0,797378.829,0.991,0.052,-0.068,-0.100,2349,0,175,2475,207,921,29,623,1,0.000,3,0,0.358,0.004,0.220,-0.040,-0.280,-0.147,-0.089,0.986,0.000,0.004,-0.014,0.000,0.000,0.000,0.000,1,2,0,2,7,255,1224,300,369,1224
stim,1601,1601,0,797383.829,0.991,0.052,-0.068,-0.100,2341,0,171,2483,213,933,29,633,1,0.000,3,0,0.441,0.006,0.340,0.020,-0.280,-0.144,-0.088,0.987,0.002,-0.006,-0.014,0.000,0.000,0.000,0.000,1,2,0,2,7,255,1224,300,374,1224
stim,1615,1615,0,797388.829,0.991,0.052,-0.068,-0.100,2361,0,171,2472,209,933,35,629,1,0.000,3,0,0.224,0.025,0.220,-0.040,0.020,-0.145,-0.087,0.990,0.024,-0.006,-0.010,0.000,0.000,0.000,0.000,1,2,0,2,7,255,1224,300,379,1224
stim,1615,1615,0,797393.829,0.991,0.052,-0.068,-0.100,2351,0,176,2487,205,933,33,628,1,0.000,3,0,0.166,0.025,-0.080,-0.040,0.140,-0.146,-0.086,0.990,0.024,0.008,0.014,0.000,0.000,0.000,0.000,1,2,0,2,7,255,1224,300,384,1224
stim,1615,1615,0,797398.829,0.991,0.052,-0.068,-0.100,2360,0,171,2464,212,923,35,623,1,0.000,3,0,0.147,0.010,-0.140,-0.040,0.020,-0.148,-0.087,0.987,0.006,0.008,0.014,0.000,0.000,0.000,0.000,1,2,0,2,7,255,1224,300,389,1224
stim,1615,1615,0,797403.829,0.991,0.052,-0.068,-0.100,2343,3,176,2469,213,921,27,631,1,0.000,3,0,0.115,0.004,0.040,-0.040,-0.100,-0.147,-0.088,0.986,0.000,-0.004,-0.004,0.000,0.000,0.000,0.000,1,2,0,2,7,255,1224,300,394,1224
stim,1631,1631,0,797408.829,0.991,0.052,-0.068,-0.100,2359,0,173,2481,209,923,35,633,1,0.000,3,0,0.273,0.004,0.220,0.020,-0.160,-0.146,-0.086,0.987,0.000,-0.004,-0.008,0.000,0.000,0.000,0.000,1,2,0,2,7,255,1224,300,399,1224
stim,1631,1631,0,797413.829,0.991,0.052,-0.068,-0.100,2336,0,181,2468,212,923,31,632,1,0.000,3,0,0.166,0.007,0.160,0.020,-0.040,-0.146,-0.087,0.988,0.006,0.004,-0.008,0.000,0.000,0.000,0.000,1,2,0,2,7,255,1224,300,404,1224
stim,1631,1631,0,797418.829,0.991,0.052,-0.068,-0.100,2357,0,175,2460,212,930,37,631,1,0.000,3,0,0.069,0.011,0.040,-0.040,-0.040,-0.145,-0.086,0.989,0.008,0.008,-0.002,0.000,0.000,0.000,0.000,1,2,0,2,7,255,1224,300,409,1224
stim,1631,1631,0,797423.829,0.991,0.052,-0.068,-0.100,2344,0,175,2475,213,931,27,628,1,0.000,3,0,0.143,0.013,-0.140,0.020,0.020,-0.146,-0.087,0.988,0.012,0.006,0.002,0.000,0.000,0.000,0.000,1,2,0,2,7,255,1224,300,414,1224
stim,1647,1647,0,797428.829,0.991,0.052,-0.068,-0.100,2351,0,173,2472,212,931,35,627,1,0.000,3,0,0.110,0.013,0.100,0.020,-0.040,-0.146,-0.088,0.986,0.012,0.006,0.002,0.000,0.000,0.000,0.000,1,2,0,2,7,255,1224,300,419,1224
stim,1647,1647,0,797433.829,0.991,0.052,-0.068,-0.100,2355,0,174,2473,213,924,35,626,1,0.000,3,0,0.166,0.007,0.160,0.020,-0.040,-0.147,-0.086,0.987,0.004,0.006,-0.006,0.000,0.000,0.000,0.000,1,2,0,2,7,255,1224,300,424,1224
stim,1647,1647,0,797438.829,0.991,0.052,-0.068,-0.100,2357,0,173,2464,216,932,35,627,1,0.000,3,0,0.227,0.007,0.160,0.020,-0.160,-0.146,-0.087,0.989,0.004,0.006,-0.006,0.000,0.000,0.000,0.000,1,2,0,2,7,255,1224,300,429,1224
stim,1647,1647,0,797443.829,0.991,0.052,-0.068,-0.100,2346,0,181,2464,216,923,37,623,1,0.000,3,0,0.104,0.012,-0.020,0.020,-0.100,-0.146,-0.087,0.989,0.010,0.006,0.006,0.000,0.000,0.000,0.000,1,2,0,2,7,255,1224,300,434,1224
stim,1663,1663,0,797448.829,0.991,0.052,-0.068,-0.100,2361,0,179,2464,211,924,31,621,1,0.000,3,0,0.085,0.010,-0.020,0.080,0.020,-0.146,-0.087,0.987,0.010,0.002,0.006,0.000,0.000,0.000,0.000,1,2,0,2,7,255,1224,300,439,1224
stim,1663,1663,0,797453.829,0.991,0.052,-0.068,-0.100,2348,0,179,2461,208,923,34,621,1,0.000,3,0,0.035,0.008,-0.020,0.020,0.020,-0.146,-0.088,0.987,0.008,0.000,-0.006,0.000,0.000,0.000,0.000,1,2,0,2,7,255,1224,300,444,1224
stim,1695,1695,0,797458.829,0.991,0.052,-0.068,-0.100,2336,0,175,2463,212,926,31,628,1,0.000,3,0,0.049,0.007,-0.020,0.020,-0.040,-0.148,-0.088,0.987,0.004,-0.006,-0.006,0.000,0.000,0.000,0.000,1,2,0,2,7,255,1224,300,449,1224
stim,1695,1695,0,797463.829,0.991,0.052,-0.068,-0.100,2348,1,173,2479,216,923,29,627,1,0.000,3,0,0.110,0.006,0.040,0.020,-0.100,-0.147,-0.088,0.988,0.000,-0.006,-0.004,0.000,0.000,0.000,0.000,1,2,0,2,7,255,1224,300,454,1224
stim,1695,1695,0,797468.829,0.991,0.052,-0.068,-0.100,2336,0,175,2469,217,933,31,629,1,0.000,3,0,0.049,0.008,-0.020,-0.040,0.020,-0.147,-0.088,0.987,0.000,-0.008,-0.004,0.000,0.000,0.000,0.000,1,2,0,2,7,255,1224,300,459,1224
stim,1695,1695,0,797473.829,0.991,0.052,-0.068,-0.100,2349,0,179,2479,217,925,33,622,1,0.000,3,0,0.049,0.006,0.040,0.020,0.020,-0.146,-0.088,0.987,0.000,-0.006,-0.004,0.000,0.000,0.000,0.000,1,2,0,2,7,255,1224,300,464,1224
stim,1695,1695,0,797478.829,0.991,0.052,-0.068,-0.100,2347,0,171,2464,224,925,28,624,1,0.000,3,0,0.092,0.006,-0.020,-0.040,0.080,-0.146,-0.087,0.988,0.004,-0.004,-0.004,0.000,0.000,0.000,0.000,1,2,0,2,7,255,1224,300,469,1224
stim,1695,1695,0,797483.829,0.991,0.052,-0.068,-0.100,2343,0,175,2481,220,921,33,629,1,0.000,3,0,0.049,0.006,0.040,0.020,0.020,-0.147,-0.088,0.988,0.004,-0.004,-0.002,0.000,0.000,0.000,0.000,1,2,0,2,7,255,1224,300,474,1224
stim,1711,1711,0,797488.829,0.991,0.052,-0.068,-0.100,2345,0,171,2477,219,927,35,624,1,0.000,3,0,0.115,0.006,0.100,-0.040,-0.040,-0.146,-0.088,0.988,0.004,-0.004,0.000,0.000,0.000,0.000,0.000,1,2,0,2,7,255,1224,300,479,1224
stim,1711,1711,0,797493.829,0.991,0.052,-0.068,-0.100,2333,0,173,2468,229,917,28,629,1,0.000,3,0,0.110,0.006,0.100,-0.040,0.020,-0.146,-0.086,0.990,0.004,-0.004,0.004,0.000,0.000,0.000,0.000,1,2,0,2,7,255,1224,300,484,1224
stim,1711,1711,0,797498.829,0.991,0.052,-0.068,-0.100,2341,3,176,2470,211,932,29,623,1,0.000,3,0,0.098,0.009,0.040,-0.040,0.080,-0.146,-0.089,0.989,0.008,-0.004,0.014,0.000,0.000,0.000,0.000,1,2,0,2,7,255,1224,300,489,1224
stim,1711,1711,0,797503.829,0.991,0.052,-0.068,-0.100,2344,1,179,2461,217,922,36,623,1,0.000,3,0,0.134,0.009,0.100,-0.040,0.080,-0.146,-0.088,0.989,0.008,-0.004,0.014,0.000,0.000,0.000,0.000,1,2,0,2,7,255,1224,300,494,1224
stim,1727,1727,0,797508.830,0.991,0.052,-0.068,-0.100,2334,0,173,2459,213,920,29,621,1,0.000,3,0,0.134,0.007,0.040,-0.100,0.080,-0.147,-0.087,0.987,0.006,-0.004,0.008,0.000,0.000,0.000,0.000,1,2,0,2,7,255,1224,300,499,1224
stim,1727,1727,0,797513.829,0.991,0.052,-0.068,-0.100,2347,0,174,2472,210,931,29,631,1,0.000,3,0,0.190,0.004,0.160,-0.100,0.020,-0.147,-0.088,0.988,0.000,-0.004,0.004,0.000,0.000,0.000,0.000,1,2,0,2,7,255,1224,300,504,1224
stim,1743,1743,0,797518.829,0.991,0.052,-0.068,-0.100,2363,0,172,2475,212,925,28,630,1,0.000,3,0,0.170,0.004,0.160,-0.040,-0.040,-0.146,-0.088,0.988,0.000,-0.004,-0.002,0.000,0.000,0.000,0.000,1,2,0,2,7,255,1224,300,509,1224
stim,1743,1743,0,797523.829,0.991,0.052,-0.068,-0.100,2349,0,179,2471,213,922,30,629,1,0.000,3,0,0.110,0.004,0.100,-0.040,0.020,-0.146,-0.087,0.988,0.002,-0.004,-0.002,0.000,0.000,0.000,0.000,1,2,0,2,7,255,1224,300,514,1224
stim,1743,1743,0,797528.829,0.991,0.052,-0.068,-0.100,2347,0,175,2477,215,923,26,631,1,0.000,3,0,0.134,0.008,0.100,-0.040,0.080,-0.146,-0.087,0.988,0.008,0.002,-0.002,0.000,0.000,0.000,0.000,1,2,0,2,7,255,1224,300,519,1224
stim,1743,1743,0,797533.829,0.991,0.052,-0.068,-0.100,2355,0,173,2473,211,922,30,628,1,0.000,3,0,0.115,0.006,0.100,-0.040,-0.040,-0.146,-0.086,0.988,0.002,0.006,0.002,0.000,0.000,0.000,0.000,1,2,0,2,7,255,1224,300,524,1224
stim,1743,1743,0,797538.829,0.991,0.052,-0.068,-0.100,2355,0,173,2474,215,927,33,624,1,0.000,3,0,0.166,0.012,0.160,-0.040,0.020,-0.146,-0.086,0.988,0.006,0.010,0.002,0.000,0.000,0.000,0.000,1,2,0,2,7,255,1224,300,529,1224
stim,1743,1743,0,797543.829,0.991,0.052,-0.068,-0.100,2340,0,173,2477,215,929,27,624,1,0.000,3,0,0.069,0.010,0.040,-0.040,-0.040,-0.146,-0.087,0.988,0.002,0.010,0.002,0.000,0.000,0.000,0.000,1,2,0,2,7,255,1224,300,534,1224
stim,1791,1791,0,797548.829,0.991,0.052,-0.068,-0.100,2351,0,181,2463,206,927,29,622,1,0.000,3,0,0.110,0.008,0.040,0.020,-0.100,-0.146,-0.087,0.989,0.006,0.006,0.002,0.000,0.000,0.000,0.000,1,2,0,2,7,255,1224,300,539,1224
stim,1791,1791,0,797553.829,0.991,0.052,-0.068,-0.100,2349,0,179,2477,213,928,33,631,1,0.000,3,0,0.060,0.006,-0.020,-0.040,-0.040,-0.146,-0.087,0.989,0.004,0.004,0.006,0.000,0.000,0.000,0.000,1,2,0,2,7,255,1224,300,544,1224
stim,1791,1791,0,797558.829,0.991,0.052,-0.068,-0.100,2350,0,178,2464,215,933,33,627,1,0.000,3,0,0.060,0.004,0.040,0.020,-0.040,-0.147,-0.089,0.988,0.004,0.002,0.006,0.000,0.000,0.000,0.000,1,2,0,2,7,255,1224,300,549,1224
stim,1791,1791,0,797563.829,0.991,0.052,-0.068,-0.100,2347,0,176,2477,215,928,29,627,1,0.000,3,0,0.060,0.002,0.040,0.020,-0.040,-0.146,-0.087,0.987,0.002,0.000,0.004,0.000,0.000,0.000,0.000,1,2,0,2,7,255,1224,300,554,1224
stim,1791,1791,0,797568.829,0.991,0.052,-0.068,-0.100,2360,0,181,2464,215,927,37,622,1,0.000,3,0,0.069,0.002,0.040,-0.040,-0.040,-0.146,-0.087,0.987,0.002,0.000,-0.006,0.000,0.000,0.000,0.000,1,2,0,2,7,255,1224,300,559,1224
stim,1791,1791,0,797573.829,0.991,0.052,-0.068,-0.100,2344,2,179,2469,215,921,29,625,1,0.000,3,0,0.060,0.006,0.040,0.020,-0.040,-0.146,-0.086,0.987,0.002,0.006,-0.008,0.000,0.000,0.000,0.000,1,2,0,2,7,255,1224,300,564,1224
stim,1818,1818,0,797578.829,0.991,0.052,-0.068,-0.100,2347,0,173,2473,216,921,30,624,1,0.000,3,0,0.110,0.008,0.040,0.020,-0.100,-0.146,-0.088,0.987,0.006,0.006,-0.008,0.000,0.000,0.000,0.000,1,2,0,2,7,255,1224,300,569,1224
stim,1818,1818,0,797583.829,0.991,0.052,-0.068,-0.100,2336,0,179,2472,217,935,33,631,1,0.000,3,0,0.104,0.004,-0.020,0.020,-0.100,-0.146,-0.087,0.989,0.004,0.002,-0.006,0.000,0.000,0.000,0.000,1,2,0,2,7,255,1224,300,574,1224
stim,1818,1818,0,797588.829,0.991,0.052,-0.068,-0.100,2357,0,173,2473,215,923,27,629,1,0.000,3,0,0.104,0.008,-0.020,0.020,-0.100,-0.146,-0.087,0.988,0.008,0.002,0.002,0.000,0.000,0.000,0.000,1,2,0,2,7,255,1224,300,579,1224
stim,1819,1819,0,797593.829,0.991,0.052,-0.068,-0.100,2356,0,173,2475,215,931,26,624,1,0.000,3,0,0.110,0.011,-0.020,-0.040,-0.100,-0.146,-0.087,0.988,0.010,0.004,0.002,0.000,0.000,0.000,0.000,1,2,0,2,7,255,1224,300,584,1224
stim,1819,1819,0,797598.829,0.991,0.052,-0.068,-0.100,2356,0,170,2475,218,933,35,624,1,0.000,3,0,0.110,0.011,0.040,0.020,-0.100,-0.146,-0.087,0.988,0.010,0.004,0.002,0.000,0.000,0.000,0.000,1,2,0,2,7,255,1224,300,589,1224
stim,1820,1820,0,797603.829,0.991,0.052,-0.068,-0.100,2347,0,176,2473,217,925,36,629,1,0.000,3,0,0.104,0.007,-0.020,0.020,-0.100,-0.146,-0.087,0.988,0.006,0.004,0.002,0.000,0.000,0.000,0.000,1,2,0,2,7,255,1224,300,594,1224
stim,1820,1820,0,797608.829,0.991,0.052,-0.068,-0.100,2341,0,174,2489,217,931,26,632,1,0.000,3,0,0.162,0.006,-0.020,0.020,-0.160,-0.147,-0.087,0.988,0.002,0.006,0.002,0.000,0.000,0.000,0.000,1,2,0,2,7,255,1224,300,599,1224
stim,1820,1820,0,797613.829,0.991,0.052,-0.068,-0.100,2333,0,171,2459,211,919,26,621,1,0.000,3,0,0.110,0.006,-0.020,-0.040,-0.100,-0.146,-0.088,0.989,0.002,0.006,0.004,0.000,0.000,0.000,0.000,1,2,0,2,7,255,1224,300,604,1224
stim,1820,1820,0,797618.829,0.991,0.052,-0.068,-0.100,2343,4,176,2473,207,934,29,628,1,0.000,3,0,0.069,0.006,0.040,-0.040,-0.040,-0.146,-0.087,0.989,0.002,0.006,0.006,0.000,0.000,0.000,0.000,1,2,0,2,7,255,1224,300,609,1224
stim,1843,1843,0,797623.829,0.991,0.052,-0.068,-0.100,2349,0,176,2471,215,924,35,627,1,0.000,3,0,0.049,0.012,-0.020,0.020,-0.040,-0.146,-0.088,0.989,0.012,0.000,0.006,0.000,0.000,0.000,0.000,1,2,0,2,7,255,1224,300,614,1224
stim,1843,1843,0,797628.829,0.991,0.052,-0.068,-0.100,2347,0,179,2468,207,931,33,623,1,0.000,3,0,0.069,0.006,0.040,-0.040,-0.040,-0.146,-0.088,0.987,0.006,0.000,0.006,0.000,0.000,0.000,0.000,1,2,0,2,7,255,1224,300,619,1224
stim,1844,1844,0,797633.829,0.991,0.052,-0.068,-0.100,2348,0,176,2477,211,925,29,633,1,0.000,3,0,0.049,0.006,-0.020,0.020,-0.040,-0.146,-0.087,0.987,0.006,0.000,-0.008,0.000,0.000,0.000,0.000,1,2,0,2,7,255,1224,300,624,1224
stim,1844,1844,0,797638.829,0.991,0.052,-0.068,-0.100,2347,0,174,2483,211,931,27,630,1,0.000,3,0,0.060,0.007,-0.020,-0.040,-0.040,-0.146,-0.088,0.988,0.006,-0.004,-0.008,0.000,0.000,0.000,0.000,1,2,0,2,7,255,1224,300,629,1224
stim,1855,1855,0,797643.829,0.991,0.052,-0.068,-0.100,2351,0,171,2468,215,932,24,632,1,0.000,3,0,0.049,0.004,0.040,0.020,0.020,-0.146,-0.088,0.988,0.004,-0.002,-0.002,0.000,0.000,0.000,0.000,1,2,0,2,7,255,1224,300,634,1224
stim,1855,1855,0,797648.829,0.991,0.052,-0.068,-0.100,2354,0,173,2474,203,921,24,629,1,0.000,3,0,0.060,0.003,-0.020,-0.040,-0.040,-0.146,-0.087,0.988,0.002,-0.002,0.002,0.000,0.000,0.000,0.000,1,2,0,2,7,255,1224,300,639,1224
stim,1889,1889,0,797653.829,0.991,0.052,-0.068,-0.100,2344,1,180,2461,203,925,33,632,1,0.000,3,0,0.110,0.003,0.100,-0.040,0.020,-0.146,-0.088,0.987,0.002,-0.002,0.002,0.000,0.000,0.000,0.000,1,2,0,2,7,255,1224,300,644,1224
stim,1889,1889,0,797658.829,0.991,0.052,-0.068,-0.100,2351,0,180,2485,213,929,29,633,1,0.000,3,0,0.115,0.004,0.100,-0.040,-0.040,-0.147,-0.088,0.989,0.000,-0.004,0.002,0.000,0.000,0.000,0.000,1,2,0,2,7,255,1224,300,649,1224
stim,1891,1891,0,797663.829,0.991,0.052,-0.068,-0.100,2345,0,173,2475,211,929,26,631,1,0.000,3,0,0.110,0.004,0.100,0.020,-0.040,-0.146,-0.087,0.988,0.002,-0.004,0.000,0.000,0.000,0.000,0.000,1,2,0,2,7,255,1224,300,654,1224
stim,1891,1891,0,797668.829,0.991,0.052,-0.068,-0.100,2347,0,176,2461,212,927,29,633,1,0.000,3,0,0.110,0.006,0.100,0.020,-0.040,-0.146,-0.087,0.988,0.006,0.002,0.000,0.000,0.000,0.000,0.000,1,2,0,2,7,255,1224,300,659,1224
stim,1891,1891,0,797673.829,0.991,0.052,-0.068,-0.100,2351,0,172,2471,213,921,29,630,1,0.000,3,0,0.110,0.006,0.100,0.020,-0.040,-0.146,-0.088,0.988,0.006,0.002,-0.002,0.000,0.000,0.000,0.000,1,2,0,2,7,255,1224,300,664,1224
stim,1891,1891,0,797678.829,0.991,0.052,-0.068,-0.100,2347,0,173,2477,213,921,25,631,1,0.000,3,0,0.115,0.006,0.100,-0.040,-0.040,-0.146,-0.087,0.988,0.006,0.002,-0.002,0.000,0.000,0.000,0.000,1,2,0,2,7,255,1224,300,669,1224
stim,1912,1912,0,797683.829,0.991,0.052,-0.068,-0.100,2357,0,174,2483,201,927,27,627,1,0.000,3,0,0.060,0.006,0.040,0.020,-0.040,-0.146,-0.088,0.987,0.006,-0.002,-0.004,0.000,0.000,0.000,0.000,1,2,0,2,7,255,1224,300,674,1224
stim,1912,1912,0,797688.829,0.991,0.052,-0.068,-0.100,2349,0,172,2487,205,922,30,630,1,0.000,3,0,0.060,0.010,0.040,0.020,-0.040,-0.146,-0.087,0.987,0.006,0.008,-0.008,0.000,0.000,0.000,0.000,1,2,0,2,7,255,1224,300,679,1224
stim,1913,1913,0,797693.829,0.991,0.052,-0.068,-0.100,2353,0,169,2487,205,922,26,629,1,0.000,3,0,0.060,0.009,0.040,0.020,-0.040,-0.145,-0.088,0.988,0.008,-0.004,-0.008,0.000,0.000,0.000,0.000,1,2,0,2,7,255,1224,300,684,1224
stim,1913,1913,0,797698.829,0.991,0.052,-0.068,-0.100,2355,1,179,2475,205,926,31,622,1,0.000,3,0,0.060,0.008,0.040,0.020,-0.040,-0.146,-0.088,0.988,0.008,-0.002,-0.002,0.000,0.000,0.000,0.000,1,2,0,2,7,255,1224,300,689,1224
stim,1913,1913,0,797703.829,0.991,0.052,-0.068,-0.100,2357,0,173,2463,206,934,30,623,1,0.000,3,0,0.104,0.006,0.100,0.020,0.020,-0.146,-0.088,0.988,0.006,-0.002,-0.002,0.000,0.000,0.000,0.000,1,2,0,2,7,255,1224,300,694,1224
stim,1913,1913,0,797708.830,0.991,0.052,-0.068,-0.100,2364,3,171,2460,204,919,27,621,1,0.000,3,0,0.104,0.004,0.100,0.020,0.020,-0.146,-0.087,0.987,0.004,-0.002,-0.002,0.000,0.000,0.000,0.000,1,2,0,2,7,255,1224,300,699,1224
stim,1935,1935,0,797713.829,0.991,0.052,-0.068,-0.100,2336,0,173,2487,207,920,30,629,1,0.000,3,0,0.104,0.004,0.100,0.020,0.020,-0.146,-0.088,0.988,0.004,-0.002,0.002,0.000,0.000,0.000,0.000,1,2,0,2,7,255,1224,300,704,1224
stim,1935,1935,0,797718.829,0.991,0.052,-0.068,-0.100,2332,0,174,2483,203,936,30,629,1,0.000,3,0,0.049,0.004,0.040,0.020,0.020,-0.146,-0.088,0.988,0.004,-0.002,-0.002,0.000,0.000,0.000,0.000,1,2,0,2,7,255,1224,300,709,1224
stim,1935,1935,0,797723.829,0.991,0.052,-0.068,-0.100,2343,0,173,2477,199,933,25,629,1,0.000,3,0,0.060,0.003,0.040,-0.040,0.020,-0.146,-0.087,0.989,0.002,-0.002,0.004,0.000,0.000,0.000,0.000,1,2,0,2,7,255,1224,300,714,1224
stim,1935,1935,0,797728.829,0.991,0.052,-0.068,-0.100,2355,0,171,2485,203,925,31,628,1,0.000,3,0,0.110,0.012,0.100,-0.040,0.020,-0.146,-0.088,0.987,0.010,-0.006,-0.002,0.000,0.000,0.000,0.000,1,2,0,2,7,255,1224,300,719,1224
stim,1951,1951,0,797733.829,0.991,0.052,-0.068,-0.100,2359,0,179,2469,200,933,29,624,1,0.000,3,0,0.098,0.008,0.040,-0.040,0.080,-0.146,-0.088,0.988,0.006,-0.006,0.004,0.000,0.000,0.000,0.000,1,2,0,2,7,255,1224,300,724,1224
stim,1951,1951,0,797738.829,0.991,0.052,-0.068,-0.100,2347,0,179,2464,208,927,33,627,1,0.000,3,0,0.130,0.008,0.100,0.020,0.080,-0.146,-0.086,0.988,0.006,-0.006,-0.004,0.000,0.000,0.000,0.000,1,2,0,2,7,255,1224,300,729,1224
stim,1967,1967,0,797743.829,0.991,0.052,-0.068,-0.100,2336,1,181,2464,205,931,30,622,1,0.000,3,0,0.134,0.006,0.100,-0.040,0.080,-0.146,-0.088,0.988,0.006,-0.002,-0.002,0.000,0.000,0.000,0.000,1,2,0,2,7,255,1224,300,734,1224
stim,1967,1967,0,797748.829,0.991,0.052,-0.068,-0.100,2345,0,177,2463,203,927,27,629,1,0.000,3,0,0.183,0.006,0.160,-0.040,0.080,-0.147,-0.087,0.988,0.006,0.002,-0.002,0.000,0.000,0.000,0.000,1,2,0,2,7,255,1224,300,739,1224
stim,1967,1967,0,797753.829,0.991,0.052,-0.068,-0.100,2350,0,177,2463,204,933,30,623,1,0.000,3,0,0.183,0.006,0.160,-0.040,0.080,-0.147,-0.087,0.988,-0.006,0.002,0.000,0.000,0.000,0.000,0.000,1,2,0,2,7,255,1224,300,744,1224
stim,1983,1983,0,797758.829,0.991,0.052,-0.068,-0.100,2343,0,176,2469,202,925,29,625,1,0.000,3,0,0.134,0.006,0.100,-0.040,0.080,-0.146,-0.088,0.988,-0.006,0.002,0.000,0.000,0.000,0.000,0.000,1,2,0,2,7,255,1224,300,749,1224
stim,1983,1983,0,797763.829,0.991,0.052,-0.068,-0.100,2350,0,173,2471,205,923,30,623,1,0.000,3,0,0.134,0.002,0.100,-0.040,0.080,-0.146,-0.088,0.988,0.000,-0.002,0.004,0.000,0.000,0.000,0.000,1,2,0,2,7,255,1224,300,754,1224
stim,1983,1983,0,797768.829,0.991,0.052,-0.068,-0.100,2361,0,171,2479,203,927,29,629,1,0.000,3,0,0.183,0.003,0.160,-0.040,0.080,-0.146,-0.086,0.988,0.002,-0.002,-0.002,0.000,0.000,0.000,0.000,1,2,0,2,7,255,1224,300,759,1224
stim,1983,1983,0,797773.829,0.991,0.052,-0.068,-0.100,2357,0,172,2471,203,931,31,628,1,0.000,3,0,0.166,0.006,0.160,-0.040,0.020,-0.146,-0.087,0.988,0.004,0.004,0.002,0.000,0.000,0.000,0.000,1,2,0,2,7,255,1224,300,764,1224
stim,1999,1999,0,797778.829,0.991,0.052,-0.068,-0.100,2351,0,172,2479,207,928,25,624,1,0.000,3,0,0.166,0.015,0.160,-0.040,0.020,-0.146,-0.086,0.988,0.004,0.014,0.002,0.000,0.000,0.000,0.000,1,2,0,2,7,255,1224,300,769,1224
stim,1999,1999,0,797783.829,0.991,0.052,-0.068,-0.100,2357,0,173,2473,200,925,34,631,1,0.000,3,0,0.134,0.008,0.100,-0.040,0.080,-0.146,-0.087,0.988,0.002,0.008,0.002,0.000,0.000,0.000,0.000,1,2,0,2,7,255,1224,300,774,1224
stim,1999,1999,0,797788.829,0.991,0.052,-0.068,-0.100,2349,0,171,2469,205,921,30,624,1,0.000,3,0,0.110,0.010,0.100,-0.040,0.020,-0.147,-0.086,0.987,-0.002,0.010,0.002,0.000,0.000,0.000,0.000,1,2,0,2,7,255,1224,300,779,1224
stim,1999,1999,0,797793.829,0.991,0.052,-0.068,-0.100,2297,0,173,2473,202,920,29,631,1,0.000,3,0,0.166,0.010,0.160,-0.040,0.020,-0.146,-0.086,0.988,-0.002,0.010,-0.002,0.000,0.000,0.000,0.000,1,2,0,2,7,255,1224,300,784,1224
stim,2015,2015,0,797798.829,0.991,0.052,-0.068,-0.100,2347,0,181,2483,203,922,28,633,1,0.000,3,0,0.049,0.010,0.040,0.020,0.020,-0.146,-0.087,0.989,-0.002,0.010,-0.002,0.000,0.000,0.000,0.000,1,2,0,2,7,255,1224,300,789,1224
stim,2015,2015,0,797803.830,0.991,0.052,-0.068,-0.100,2349,3,180,2479,201,932,27,627,1,0.000,3,0,0.110,0.012,0.100,-0.040,0.020,-0.147,-0.086,0.989,-0.002,0.012,0.008,0.000,0.000,0.000,0.000,1,2,0,2,7,255,1224,300,794,1224
stim,2015,2015,0,797808.829,0.991,0.052,-0.068,-0.100,2342,0,176,2479,201,931,29,631,1,0.000,3,0,0.115,0.012,0.100,-0.040,-0.040,-0.146,-0.086,0.988,-0.002,0.012,0.008,0.000,0.000,0.000,0.000,1,2,0,2,7,255,1224,300,799,1224
stim,2015,2015,0,797813.829,0.991,0.052,-0.068,-0.100,2357,0,176,2477,199,926,29,632,1,0.000,3,0,0.104,0.012,0.100,0.020,0.020,-0.146,-0.087,0.988,-0.002,0.012,0.002,0.000,0.000,0.000,0.000,1,2,0,2,7,255,1224,300,804,1224
stim,2031,2031,0,797818.829,0.991,0.052,-0.068,-0.100,2355,0,181,2469,204,933,31,623,1,0.000,3,0,0.110,0.008,0.100,-0.040,0.020,-0.146,-0.087,0.988,-0.002,0.008,0.002,0.000,0.000,0.000,0.000,1,2,0,2,7,255,1224,300,809,1224
stim,2031,2031,0,797823.829,0.991,0.052,-0.068,-0.100,2359,0,171,2469,205,925,33,624,1,0.000,3,0,0.060,0.008,0.040,-0.040,0.020,-0.146,-0.087,0.988,-0.002,0.008,0.002,0.000,0.000,0.000,0.000,1,2,0,2,7,255,1224,300,814,1224
stim,2047,2047,0,797828.829,0.991,0.052,-0.068,-0.100,2347,0,176,2483,199,924,27,633,1,0.000,3,0,0.110,0.008,0.100,-0.040,0.020,-0.146,-0.086,0.987,0.000,0.008,0.002,0.000,0.000,0.000,0.000,1,2,0,2,7,255,1224,300,819,1224
stim,2047,2047,0,797833.829,0.991,0.052,-0.068,-0.100,2357,0,174,2483,201,921,29,631,1,0.000,3,0,0.104,0.006,0.100,0.020,0.020,-0.146,-0.087,0.988,0.004,0.004,0.002,0.000,0.000,0.000,0.000,1,2,0,2,7,255,1224,300,824,1224
stim,2047,2047,0,797838.829,0.991,0.052,-0.068,-0.100,2345,0,171,2481,201,929,33,629,1,0.000,3,0,0.115,0.013,0.100,-0.040,-0.040,-0.146,-0.086,0.988,0.006,0.012,-0.004,0.000,0.000,0.000,0.000,1,2,0,2,7,255,1224,300,829,1224
stim,2047,2047,0,797843.829,0.991,0.052,-0.068,-0.100,2344,0,173,2469,201,925,27,624,1,0.000,3,0,0.049,0.006,-0.020,-0.040,0.020,-0.146,-0.088,0.989,0.004,0.004,0.002,0.000,0.000,0.000,0.000,1,2,0,2,7,255,1224,300,834,1224
stim,2095,2095,0,797848.829,0.991,0.052,-0.068,-0.100,2345,0,181,2461,189,929,29,632,1,0.000,3,0,0.060,0.009,0.040,0.020,-0.040,-0.146,-0.087,0.989,0.004,0.008,0.006,0.000,0.000,0.000,0.000,1,2,0,2,7,255,1224,300,839,1224
stim,2095,2095,0,797853.829,0.991,0.052,-0.068,-0.100,2336,0,175,2471,197,921,27,632,1,0.000,3,0,0.060,0.003,0.040,-0.040,0.020,-0.146,-0.087,0.988,0.002,0.002,0.006,0.000,0.000,0.000,0.000,1,2,0,2,7,255,1224,300,844,1224
stim,2095,2095,0,797858.829,0.991,0.052,-0.068,-0.100,2343,0,176,2475,200,927,29,632,1,0.000,3,0,0.060,0.009,0.040,0.020,-0.040,-0.146,-0.087,0.988,0.004,0.008,0.002,0.000,0.000,0.000,0.000,1,2,0,2,7,255,1224,300,849,1224
stim,2095,2095,0,797863.829,0.991,0.052,-0.068,-0.100,2345,0,177,2473,192,925,29,628,1,0.000,3,0,0.049,0.008,0.040,0.020,0.020,-0.147,-0.086,0.987,0.000,0.008,0.002,0.000,0.000,0.000,0.000,1,2,0,2,7,255,1224,300,854,1224
stim,2112,2112,0,797868.830,0.991,0.052,-0.068,-0.100,2343,0,171,2473,191,935,35,629,1,0.000,3,0,0.060,0.010,0.040,0.020,-0.040,-0.146,-0.086,0.987,0.000,0.010,-0.006,0.000,0.000,0.000,0.000,1,2,0,2,7,255,1224,300,859,1224
stim,2112,2112,0,797873.829,0.991,0.052,-0.068,-0.100,2343,0,172,2472,197,924,27,630,1,0.000,3,0,0.069,0.010,0.040,-0.040,-0.040,-0.146,-0.088,0.987,-0.002,0.010,-0.010,0.000,0.000,0.000,0.000,1,2,0,2,7,255,1224,300,864,1224
stim,2113,2113,0,797878.829,0.991,0.052,-0.068,-0.100,2350,0,171,2474,200,931,35,624,1,0.000,3,0,0.060,0.002,-0.020,-0.040,-0.040,-0.146,-0.088,0.988,0.000,-0.002,-0.010,0.000,0.000,0.000,0.000,1,2,0,2,7,255,1224,300,869,1224
stim,2113,2113,0,797883.829,0.991,0.052,-0.068,-0.100,2356,0,174,2489,197,924,24,632,1,0.000,3,0,0.060,0.002,0.040,0.020,-0.040,-0.146,-0.088,0.987,0.000,-0.002,-0.006,0.000,0.000,0.000,0.000,1,2,0,2,7,255,1224,300,874,1224
stim,2114,2114,0,797888.829,0.991,0.052,-0.068,-0.100,2348,0,175,2475,198,923,28,632,1,0.000,3,0,0.060,0.002,0.040,0.020,-0.040,-0.146,-0.087,0.988,0.000,-0.002,-0.002,0.000,0.000,0.000,0.000,1,2,0,2,7,255,1224,300,879,1224
stim,2114,2114,0,797893.829,0.991,0.052,-0.068,-0.100,2336,0,181,2487,203,925,27,633,1,0.000,3,0,0.049,0.004,-0.020,0.020,-0.040,-0.146,-0.087,0.988,0.004,0.002,-0.002,0.000,0.000,0.000,0.000,1,2,0,2,7,255,1224,300,884,1224
stim,2114,2114,0,797898.829,0.991,0.052,-0.068,-0.100,2345,1,171,2477,209,928,30,628,1,0.000,3,0,0.060,0.004,0.040,0.020,-0.040,-0.146,-0.086,0.988,-0.002,0.004,-0.002,0.000,0.000,0.000,0.000,1,2,0,2,7,255,1224,300,889,1224
stim,2114,2114,0,797903.829,0.991,0.052,-0.068,-0.100,2342,0,174,2484,199,926,25,622,1,0.000,3,0,0.069,0.006,0.040,-0.040,-0.040,-0.146,-0.087,0.988,0.004,0.004,-0.002,0.000,0.000,0.000,0.000,1,2,0,2,7,255,1224,300,894,1224
stim,2127,2127,0,797908.830,0.991,0.052,-0.068,-0.100,2352,1,181,2456,200,929,33,628,1,0.000,3,0,0.060,0.006,0.040,0.020,-0.040,-0.146,-0.087,0.988,0.004,0.004,-0.002,0.000,0.000,0.000,0.000,1,2,0,2,7,255,1224,300,899,1224
stim,2127,2127,0,797913.829,0.991,0.052,-0.068,-0.100,2333,0,179,2459,199,925,29,623,1,0.000,3,0,0.069,0.006,0.040,-0.040,-0.040,-0.147,-0.087,0.987,0.004,0.004,-0.002,0.000,0.000,0.000,0.000,1,2,0,2,7,255,1224,300,904,1224
stim,2127,2127,0,797918.829,0.991,0.052,-0.068,-0.100,2349,0,179,2471,196,933,29,628,1,0.000,3,0,0.060,0.006,0.040,0.020,-0.040,-0.146,-0.087,0.989,0.004,0.004,-0.002,0.000,0.000,0.000,0.000,1,2,0,2,7,255,1224,300,909,1224
stim,2127,2127,0,797923.829,0.991,0.052,-0.068,-0.100,2343,0,177,2461,191,925,31,628,1,0.000,3,0,0.060,0.007,0.040,0.020,-0.040,-0.145,-0.087,0.990,0.004,0.006,0.008,0.000,0.000,0.000,0.000,1,2,0,2,7,255,1224,300,914,1224
stim,2143,2143,0,797928.829,0.991,0.052,-0.068,-0.100,2355,0,177,2469,191,922,28,627,1,0.000,3,0,0.098,0.006,0.040,0.080,-0.040,-0.146,-0.087,0.988,0.004,0.004,0.008,0.000,0.000,0.000,0.000,1,2,0,2,7,255,1224,300,919,1224
stim,2143,2143,1,797933.829,0.991,0.052,-0.068,-0.100,2344,0,172,2486,199,927,26,632,1,0.000,3,0,0.060,0.006,0.040,0.020,-0.040,-0.146,-0.088,0.988,0.004,0.004,0.004,0.000,0.000,0.000,0.000,1,2,1,2,7,255,1224,300,924,1224
stim,2159,2159,1,797938.829,0.991,0.052,-0.068,-0.100,2343,1,181,2463,197,928,31,633,1,0.000,3,0,0.060,0.004,0.040,0.020,-0.040,-0.146,-0.088,0.987,0.004,0.000,-0.002,0.000,0.000,0.000,0.000,1,2,1,2,7,255,1224,300,929,1224
stim,2159,2159,1,797943.829,0.991,0.052,-0.068,-0.100,2339,0,179,2479,187,923,27,622,1,0.000,3,0,0.060,0.004,-0.020,-0.040,-0.040,-0.146,-0.088,0.988,0.004,-0.002,-0.002,0.000,0.000,0.000,0.000,1,2,1,2,7,255,1224,300,934,1224
stim,2192,2192,1,797948.829,0.991,0.052,-0.068,-0.100,2339,0,177,2472,187,926,26,624,1,0.000,3,0,0.110,0.008,0.100,0.020,-0.040,-0.146,-0.087,0.988,0.008,0.000,-0.002,0.000,0.000,0.000,0.000,1,2,1,2,7,255,1224,300,939,1224
stim,2192,2192,1,797953.829,0.991,0.052,-0.068,-0.100,2342,0,175,2464,191,923,33,623,1,0.000,3,0,0.060,0.013,0.040,0.020,-0.040,-0.145,-0.087,0.988,0.008,0.010,-0.002,0.000,0.000,0.000,0.000,1,2,1,2,7,255,1224,300,944,1224
stim,2192,2192,1,797958.829,0.991,0.052,-0.068,-0.100,2340,0,179,2473,186,921,27,623,1,0.000,3,0,0.049,0.013,0.040,0.020,0.020,-0.146,-0.087,0.988,0.008,0.010,-0.002,0.000,0.000,0.000,0.000,1,2,1,2,7,255,1224,300,949,1224
stim,2192,2192,1,797963.829,0.991,0.052,-0.068,-0.100,2349,0,172,2485,195,927,26,629,1,0.000,3,0,0.035,0.003,-0.020,0.020,0.020,-0.146,-0.089,0.988,0.002,0.002,-0.002,0.000,0.000,0.000,0.000,1,2,1,2,7,255,1224,300,954,1224
stim,2192,2192,1,797968.830,0.991,0.052,-0.068,-0.100,2341,0,180,2470,189,925,29,631,1,0.000,3,0,0.098,0.014,0.040,-0.040,0.080,-0.147,-0.089,0.987,-0.002,-0.014,-0.002,0.000,0.000,0.000,0.000,1,2,1,2,7,255,1224,300,959,1224
stim,2192,2192,1,797973.829,0.991,0.052,-0.068,-0.100,2348,0,173,2463,189,925,29,624,1,0.000,3,0,0.396,0.014,0.280,0.020,-0.280,-0.146,-0.085,0.989,0.002,-0.014,0.000,0.000,0.000,0.000,0.000,1,2,1,2,7,255,1224,300,964,1224
stim,2192,2192,1,797978.829,0.991,0.052,-0.068,-0.100,2346,0,179,2471,192,925,28,633,1,0.000,3,0,0.441,0.024,0.280,0.020,-0.340,-0.144,-0.082,0.990,0.004,0.024,0.004,0.000,0.000,0.000,0.000,1,2,1,2,7,255,1224,300,969,1224
stim,2208,2208,1,797983.829,0.991,0.052,-0.068,-0.100,2343,0,173,2464,203,918,29,621,1,0.000,3,0,0.957,0.028,-0.340,-0.160,0.880,-0.146,-0.094,0.990,0.014,0.024,0.008,0.000,0.000,0.000,0.000,1,2,1,2,7,255,1224,300,974,1224
stim,2208,2208,1,797988.829,0.991,0.052,-0.068,-0.100,2349,0,175,2470,181,925,30,623,1,0.000,3,0,0.663,0.058,-0.580,0.020,0.320,-0.147,-0.096,0.987,0.014,-0.056,0.008,0.000,0.000,0.000,0.000,1,2,1,2,7,255,1224,300,979,1224
stim,2208,2208,1,797993.829,0.991,0.052,-0.068,-0.100,2335,0,175,2459,186,925,27,628,1,0.000,3,0,1.066,0.056,0.760,0.200,-0.720,-0.153,-0.076,0.979,0.004,-0.056,-0.002,0.000,0.000,0.000,0.000,1,2,1,2,7,255,1224,300,984,1224
stim,2208,2208,1,797998.829,0.991,0.052,-0.068,-0.100,2336,1,175,2472,188,929,29,623,1,0.000,3,0,0.774,0.050,0.580,-0.400,0.320,-0.144,-0.083,0.994,0.004,0.050,-0.002,0.000,0.000,0.000,0.000,1,2,1,2,7,255,1224,300,989,1224
stim,2208,2208,1,798003.829,0.991,0.052,-0.068,-0.100,2341,0,174,2467,191,924,33,622,1,0.000,3,0,1.771,0.057,-0.020,0.560,-1.680,-0.142,-0.107,0.996,0.028,0.050,0.052,0.000,0.000,0.000,0.000,1,2,1,2,7,255,1224,300,994,1224
stim,2208,2208,1,798008.829,0.991,0.052,-0.068,-0.100,2344,0,176,2473,199,927,33,629,1,0.000,3,0,2.943,0.057,-0.580,-0.840,2.760,-0.143,-0.063,0.978,0.028,0.050,0.052,0.000,0.000,0.000,0.000,1,2,1,2,7,255,1224,300,999,1224
stim,2223,2223,1,798013.829,0.991,0.052,-0.068,-0.100,2336,2,175,2463,197,929,30,623,1,0.000,3,0,2.182,0.170,0.340,0.940,-1.940,-0.157,-0.110,0.991,-0.028,-0.168,0.066,0.000,0.000,0.000,0.000,1,2,1,2,7,255,1224,300,1004,1224
stim,2223,2223,1,798018.829,0.991,0.052,-0.068,-0.100,2345,0,173,2471,169,923,29,629,1,0.000,3,0,2.179,0.226,0.220,-1.320,1.720,-0.135,-0.060,0.987,-0.028,0.224,-0.052,0.000,0.000,0.000,0.000,1,2,1,2,7,255,1224,300,1009,1224
stim,2239,2239,1,798023.829,0.991,0.052,-0.068,-0.100,2341,0,170,2473,202,925,29,628,1,0.000,3,0,2.258,0.240,0.520,1.660,-1.440,-0.164,-0.119,0.983,-0.052,-0.234,0.008,0.000,0.000,0.000,0.000,1,2,1,2,7,255,1224,300,1014,1224
stim,2239,2239,1,798028.829,0.991,0.052,-0.068,-0.100,2343,0,171,2469,179,923,27,624,1,0.000,3,0,2.052,0.234,-0.880,-1.620,-0.900,-0.131,-0.069,1.005,0.054,0.228,0.008,0.000,0.000,0.000,0.000,1,2,1,2,7,255,1224,300,1019,1224
stim,2239,2239,1,798033.829,0.991,0.052,-0.068,-0.100,2344,0,179,2473,200,922,27,628,1,0.000,3,0,2.966,0.100,1.560,0.560,2.460,-0.135,-0.078,0.962,0.054,0.084,0.008,0.000,0.000,0.000,0.000,1,2,1,2,7,255,1224,300,1024,1224
stim,2239,2239,1,798038.829,0.991,0.052,-0.068,-0.100,2341,0,179,2475,201,923,35,630,1,0.000,3,0,1.766,0.100,-1.120,1.120,-0.780,-0.173,-0.116,1.013,0.054,0.084,0.130,0.000,0.000,0.000,0.000,1,2,1,2,7,255,1224,300,1029,1224
stim,2255,2255,1,798043.829,0.991,0.052,-0.068,-0.100,2344,0,174,2475,179,929,29,631,1,0.000,3,0,2.834,0.084,-0.520,-2.420,-1.380,-0.142,-0.079,0.980,0.018,0.082,-0.086,0.000,0.000,0.000,0.000,1,2,1,2,7,255,1224,300,1034,1224
stim,2255,2255,1,798048.829,0.991,0.052,-0.068,-0.100,2343,0,177,2471,195,925,30,624,1,0.000,3,0,2.363,0.084,1.320,1.780,0.820,-0.130,-0.069,0.968,0.018,0.082,-0.086,0.000,0.000,0.000,0.000,1,2,1,2,7,255,1224,300,1039,1224
stim,2287,2287,1,798053.829,0.991,0.052,-0.068,-0.100,2336,0,172,2459,227,922,27,627,1,0.000,3,0,0.677,0.084,0.400,-0.220,0.500,-0.150,-0.093,1.008,0.018,0.082,-0.086,0.000,0.000,0.000,0.000,1,2,1,2,7,255,1224,300,1044,1224
stim,2287,2287,1,798058.829,0.991,0.052,-0.068,-0.100,2343,0,173,2468,195,923,33,626,1,0.000,3,0,0.970,0.040,-0.700,-0.540,-0.400,-0.153,-0.095,0.987,0.002,-0.040,0.004,0.000,0.000,0.000,0.000,1,2,1,2,7,255,1224,300,1049,1224
stim,2287,2287,1,798063.829,0.991,0.052,-0.068,-0.100,2345,0,169,2471,166,928,26,627,1,0.000,3,0,0.247,0.042,-0.200,0.140,-0.040,-0.147,-0.087,0.984,-0.014,-0.040,0.004,0.000,0.000,0.000,0.000,1,2,1,2,7,255,1224,300,1054,1224
stim,2287,2287,1,798068.830,0.991,0.052,-0.068,-0.100,2346,0,168,2462,163,933,25,629,1,0.000,3,0,0.357,0.014,0.280,0.020,-0.220,-0.148,-0.087,0.989,-0.014,0.000,0.004,0.000,0.000,0.000,0.000,1,2,1,2,7,255,1224,300,1059,1224
stim,2287,2287,1,798073.829,0.991,0.052,-0.068,-0.100,2349,0,171,2483,215,925,27,627,1,0.000,3,0,0.290,0.014,0.160,-0.100,-0.220,-0.145,-0.087,0.989,-0.014,0.000,0.004,0.000,0.000,0.000,0.000,1,2,1,2,7,255,1224,300,1064,1224
stim,2287,2287,1,798078.829,0.991,0.052,-0.068,-0.100,2344,0,171,2473,235,925,25,623,1,0.000,3,0,0.085,0.015,-0.020,0.020,0.080,-0.144,-0.085,0.984,0.014,0.006,0.004,0.000,0.000,0.000,0.000,1,2,1,2,7,255,1224,300,1069,1224
stim,2308,2308,1,798083.829,0.991,0.052,-0.068,-0.100,2336,0,169,2467,211,925,24,621,1,0.000,3,0,0.202,0.026,-0.020,0.020,0.200,-0.145,-0.083,0.987,0.014,0.022,-0.014,0.000,0.000,0.000,0.000,1,2,1,2,7,255,1224,300,1074,1224
stim,2308,2308,1,798088.829,0.991,0.052,-0.068,-0.100,2335,0,171,2469,215,923,30,624,1,0.000,3,0,0.173,0.022,0.100,0.020,0.140,-0.147,-0.087,0.988,0.004,0.022,-0.014,0.000,0.000,0.000,0.000,1,2,1,2,7,255,1224,300,1079,1224
stim,2308,2308,1,798093.829,0.991,0.052,-0.068,-0.100,2349,0,172,2468,217,918,29,627,1,0.000,3,0,0.247,0.007,0.220,0.080,0.080,-0.147,-0.089,0.987,-0.006,0.004,-0.010,0.000,0.000,0.000,0.000,1,2,1,2,7,255,1224,300,1084,1224
stim,2308,2308,1,798098.829,0.991,0.052,-0.068,-0.100,2345,0,172,2473,247,927,27,627,1,0.000,3,0,0.281,0.018,0.280,0.020,0.020,-0.148,-0.090,0.989,-0.008,-0.016,0.002,0.000,0.000,0.000,0.000,1,2,1,2,7,255,1224,300,1089,1224
stim,2321,2321,1,798103.829,0.991,0.052,-0.068,-0.100,2345,0,171,2483,291,923,25,628,1,0.000,3,0,0.300,0.018,0.280,-0.040,-0.100,-0.147,-0.087,0.989,-0.008,-0.016,0.012,0.000,0.000,0.000,0.000,1,2,1,2,7,255,1224,300,1094,1224
stim,2321,2321,1,798108.830,0.991,0.052,-0.068,-0.100,2347,0,170,2477,299,923,26,629,1,0.000,3,0,0.147,0.004,0.100,-0.040,-0.100,-0.146,-0.087,0.989,-0.004,0.002,0.012,0.000,0.000,0.000,0.000,1,2,1,2,7,255,1224,300,1099,1224
stim,2335,2335,1,798113.829,0.991,0.052,-0.068,-0.100,2351,0,171,2479,238,927,28,626,1,0.000,3,0,0.049,0.006,-0.020,0.020,-0.040,-0.144,-0.088,0.987,0.006,0.002,0.010,0.000,0.000,0.000,0.000,1,2,1,2,7,255,1224,300,1104,1224
stim,2335,2335,1,798118.829,0.991,0.052,-0.068,-0.100,2344,0,169,2485,200,927,26,625,1,0.000,3,0,0.085,0.007,-0.080,0.020,0.020,-0.146,-0.085,0.987,0.006,0.004,-0.010,0.000,0.000,0.000,0.000,1,2,1,2,7,255,1224,300,1109,1224
stim,2335,2335,1,798123.829,0.991,0.052,-0.068,-0.100,2347,0,170,2475,191,921,29,617,1,0.000,3,0,0.035,0.014,-0.020,0.020,0.020,-0.146,-0.086,0.987,0.002,0.014,-0.010,0.000,0.000,0.000,0.000,1,2,1,2,7,255,1224,300,1114,1224
stim,2335,2335,1,798128.829,0.991,0.052,-0.068,-0.100,2335,0,165,2462,171,928,27,620,1,0.000,3,0,0.110,0.018,0.040,0.020,-0.100,-0.147,-0.085,0.987,-0.004,0.018,-0.008,0.000,0.000,0.000,0.000,1,2,1,2,7,255,1224,300,1119,1224
stim,2351,2351,1,798133.829,0.991,0.052,-0.068,-0.100,2335,0,169,2464,203,923,28,620,1,0.000,3,0,0.110,0.018,-0.020,-0.040,-0.100,-0.147,-0.087,0.987,-0.012,0.014,-0.008,0.000,0.000,0.000,0.000,1,2,1,2,7,255,1224,300,1124,1224
stim,2351,2351,1,798138.829,0.991,0.052,-0.068,-0.100,2339,0,167,2469,285,920,27,624,1,0.000,3,0,0.110,0.015,-0.020,-0.040,-0.100,-0.148,-0.088,0.988,-0.014,0.004,-0.006,0.000,0.000,0.000,0.000,1,2,1,2,7,255,1224,300,1129,1224
stim,2351,2351,1,798143.829,0.991,0.052,-0.068,-0.100,2348,0,169,2469,281,920,24,622,1,0.000,3,0,0.085,0.013,-0.020,0.020,0.080,-0.148,-0.089,0.987,-0.012,-0.006,-0.006,0.000,0.000,0.000,0.000,1,2,1,2,7,255,1224,300,1134,1224
stim,2351,2351,1,798148.829,0.991,0.052,-0.068,-0.100,2331,0,172,2477,313,925,27,619,1,0.000,3,0,0.151,0.013,0.040,-0.040,0.140,-0.146,-0.088,0.988,-0.012,-0.006,-0.002,0.000,0.000,0.000,0.000,1,2,1,2,7,255,1224,300,1139,1224
stim,2383,2383,1,798153.829,0.991,0.052,-0.068,-0.100,2333,0,171,2463,379,927,28,619,1,0.000,3,0,0.208,0.006,0.040,-0.040,0.200,-0.146,-0.085,0.989,0.006,-0.002,-0.002,0.000,0.000,0.000,0.000,1,2,1,2,7,255,1224,300,1144,1224
stim,2383,2383,1,798158.829,0.991,0.052,-0.068,-0.100,2343,0,168,2471,237,924,29,620,1,0.000,3,0,0.162,0.029,0.160,0.020,0.020,-0.144,-0.083,0.987,0.006,0.028,-0.002,0.000,0.000,0.000,0.000,1,2,1,2,7,255,1224,300,1149,1224
stim,2383,2383,1,798163.829,0.991,0.052,-0.068,-0.100,2341,0,168,2471,249,919,28,617,1,0.000,3,0,0.115,0.029,0.100,-0.040,-0.040,-0.146,-0.087,0.987,0.006,0.028,-0.014,0.000,0.000,0.000,0.000,1,2,1,2,7,255,1224,300,1154,1224
stim,2383,2383,1,798168.829,0.991,0.052,-0.068,-0.100,2346,0,169,2464,243,931,29,615,1,0.000,3,0,0.166,0.007,-0.020,-0.040,-0.160,-0.150,-0.087,0.987,0.006,0.004,-0.014,0.000,0.000,0.000,0.000,1,2,1,2,7,255,1224,300,1159,1224
stim,2383,2383,1,798173.829,0.991,0.052,-0.068,-0.100,2336,0,165,2469,395,919,27,621,1,0.000,3,0,0.110,0.037,-0.020,-0.040,-0.100,-0.151,-0.093,0.987,-0.036,-0.008,-0.002,0.000,0.000,0.000,0.000,1,2,1,2,7,255,1224,300,1164,1224
stim,2383,2383,1,798178.829,0.991,0.052,-0.068,-0.100,2346,0,169,2463,397,924,28,621,1,0.000,3,0,0.147,0.048,-0.020,-0.040,0.140,-0.150,-0.090,0.989,-0.036,-0.032,0.004,0.000,0.000,0.000,0.000,1,2,1,2,7,255,1224,300,1169,1224
stim,2383,2383,1,798183.829,0.991,0.052,-0.068,-0.100,2334,0,166,2472,366,923,28,619,1,0.000,3,0,0.336,0.040,0.100,0.020,0.320,-0.145,-0.085,0.989,-0.024,-0.032,0.008,0.000,0.000,0.000,0.000,1,2,1,2,7,255,1224,300,1174,1224
stim,2415,2415,1,798188.829,0.991,0.052,-0.068,-0.100,2336,0,172,2461,191,925,33,617,1,0.000,3,0,0.384,0.027,0.280,-0.040,0.260,-0.141,-0.082,0.989,0.012,0.024,0.008,0.000,0.000,0.000,0.000,1,2,1,2,7,255,1224,300,1179,1224
stim,2415,2415,1,798193.829,0.991,0.052,-0.068,-0.100,2344,0,171,2471,227,927,33,617,1,0.000,3,0,0.341,0.047,0.340,0.020,0.020,-0.143,-0.084,0.987,0.030,0.036,0.000,0.000,0.000,0.000,0.000,1,2,1,2,7,255,1224,300,1184,1224
stim,2415,2415,1,798198.829,0.991,0.052,-0.068,-0.100,2333,0,163,2461,221,922,24,621,1,0.000,3,0,0.147,0.047,0.100,-0.040,-0.100,-0.147,-0.088,0.986,0.030,0.036,-0.020,0.000,0.000,0.000,0.000,1,2,1,2,7,255,1224,300,1189,1224
stim,2415,2415,1,798203.829,0.991,0.052,-0.068,-0.100,2335,0,171,2471,409,927,30,628,1,0.000,3,0,0.110,0.014,-0.020,-0.100,-0.040,-0.149,-0.091,0.988,-0.010,-0.010,-0.020,0.000,0.000,0.000,0.000,1,2,1,2,7,255,1224,300,1194,1224
stim,2431,2431,1,798208.829,0.991,0.052,-0.068,-0.100,2334,0,171,2467,422,925,24,615,1,0.000,3,0,0.147,0.014,-0.020,-0.040,0.140,-0.146,-0.087,0.990,-0.010,-0.010,0.004,0.000,0.000,0.000,0.000,1,2,1,2,7,255,1224,300,1199,1224
stim,2431,2431,1,798213.829,0.991,0.052,-0.068,-0.099,2329,0,176,2467,287,921,30,617,1,0.000,3,0,0.110,0.008,0.100,-0.040,0.020,-0.143,-0.084,0.989,0.006,0.006,0.004,0.000,0.000,0.000,0.000,1,2,1,2,7,255,1224,300,1204,1224
stim,2431,2431,1,798218.829,0.991,0.052,-0.068,-0.099,2343,0,167,2471,343,923,26,619,1,0.000,3,0,0.242,0.013,0.100,0.020,-0.220,-0.146,-0.088,0.988,0.012,0.006,0.000,0.000,0.000,0.000,0.000,1,2,1,2,7,255,1224,300,1209,1224
stim,2431,2431,1,798223.829,0.991,0.052,-0.068,-0.099,2351,0,165,2473,417,921,26,621,1,0.000,3,0,0.402,0.016,-0.020,-0.040,-0.400,-0.152,-0.094,0.988,0.012,-0.010,0.000,0.000,0.000,0.000,0.000,1,2,1,2,7,255,1224,300,1214,1224
stim,2447,2447,1,798228.829,0.991,0.052,-0.068,-0.099,2345,0,167,2468,237,923,29,619,1,0.000,3,0,0.183,0.080,-0.080,-0.040,-0.160,-0.154,-0.096,0.988,-0.036,-0.072,0.010,0.000,0.000,0.000,0.000,1,2,1,2,7,255,1224,300,1219,1224
stim,2447,2447,0,798233.829,0.991,0.052,-0.068,-0.099,2344,0,172,2483,247,924,31,620,1,0.000,3,0,0.413,0.080,0.160,0.020,0.380,-0.147,-0.091,0.990,-0.036,-0.072,0.020,0.000,0.000,0.000,0.000,1,2,0,2,7,255,1224,300,0,1224
stim,2463,2463,0,798238.829,0.991,0.052,-0.068,-0.099,2355,0,167,2473,155,923,27,618,1,0.000,3,0,0.595,0.031,0.400,0.020,0.440,-0.138,-0.078,0.988,0.008,-0.030,0.020,0.000,0.000,0.000,0.000,1,2,0,2,7,255,1224,300,5,1224
stim,2463,2463,0,798243.829,0.991,0.052,-0.068,-0.099,2351,0,172,2485,151,929,31,627,1,0.000,3,0,0.426,0.118,0.400,-0.040,0.140,-0.138,-0.077,0.987,0.056,0.104,-0.018,0.000,0.000,0.000,0.000,1,2,0,2,7,255,1224,300,10,1224
stim,2495,2495,0,798248.829,0.991,0.051,-0.068,-0.099,2335,0,170,2485,144,923,33,629,1,0.000,3,0,0.355,0.118,0.100,0.020,-0.340,-0.146,-0.083,0.985,0.056,0.104,-0.030,0.000,0.000,0.000,0.000,1,2,0,2,7,255,1224,300,15,1224
stim,2495,2495,0,798253.829,0.991,0.051,-0.068,-0.099,2331,8,169,2473,211,922,30,619,1,0.000,3,0,0.544,0.030,-0.280,0.080,-0.460,-0.152,-0.092,0.989,0.000,0.030,-0.030,0.000,0.000,0.000,0.000,1,2,0,2,7,255,1224,300,20,1224
stim,2495,2495,0,798258.829,0.991,0.051,-0.068,-0.099,2344,0,168,2476,203,926,26,618,1,0.000,3,0,0.358,0.059,-0.280,-0.040,-0.220,-0.150,-0.094,0.990,-0.020,-0.056,0.024,0.000,0.000,0.000,0.000,1,2,0,2,7,255,1224,300,25,1224
stim,2495,2495,0,798263.829,0.991,0.051,-0.068,-0.099,2336,0,171,2471,297,925,31,629,1,0.000,3,0,0.151,0.059,-0.080,0.080,-0.100,-0.146,-0.089,0.990,-0.020,-0.056,0.024,0.000,0.000,0.000,0.000,1,2,0,2,7,255,1224,300,30,1224
stim,2495,2495,0,798268.829,0.991,0.051,-0.068,-0.099,2339,0,172,2475,292,925,25,621,1,0.000,3,0,0.193,0.022,0.040,-0.100,-0.160,-0.146,-0.089,0.990,0.008,-0.020,0.018,0.000,0.000,0.000,0.000,1,2,0,2,7,255,1224,300,35,1224
stim,2495,2495,0,798273.829,0.991,0.051,-0.068,-0.099,2343,0,168,2481,275,923,26,620,1,0.000,3,0,0.314,0.022,-0.140,0.020,-0.280,-0.146,-0.089,0.988,0.008,-0.020,0.018,0.000,0.000,0.000,0.000,1,2,0,2,7,255,1224,300,40,1224
stim,2511,2511,0,798278.829,0.991,0.052,-0.068,-0.099,2345,0,168,2474,263,933,25,621,1,0.000,3,0,0.383,0.017,-0.260,0.020,-0.280,-0.146,-0.085,0.988,0.006,-0.016,-0.002,0.000,0.000,0.000,0.000,1,2,0,2,7,255,1224,300,45,1224
stim,2511,2511,0,798283.829,0.991,0.051,-0.068,-0.099,2343,1,173,2461,222,931,29,625,1,0.000,3,0,0.355,0.023,-0.340,0.020,-0.100,-0.142,-0.080,0.984,0.006,0.022,-0.006,0.000,0.000,0.000,0.000,1,2,0,2,7,255,1224,300,50,1224
stim,2511,2511,0,798288.829,0.991,0.051,-0.068,-0.099,2349,0,167,2471,217,929,28,623,1,0.000,3,0,0.384,0.079,0.160,0.140,0.320,-0.141,-0.078,0.984,0.028,0.074,-0.050,0.000,0.000,0.000,0.000,1,2,0,2,7,255,1224,300,55,1224
stim,2511,2511,0,798293.829,0.991,0.051,-0.068,-0.099,2345,0,166,2461,205,922,28,622,1,0.000,3,0,1.022,0.079,0.880,0.140,0.500,-0.147,-0.085,0.989,0.028,0.074,-0.050,0.000,0.000,0.000,0.000,1,2,0,2,7,255,1224,300,60,1224
stim,2511,2511,0,798298.829,0.991,0.051,-0.068,-0.099,2349,0,167,2475,121,927,29,619,1,0.000,3,0,0.718,0.014,0.700,0.020,-0.160,-0.155,-0.100,0.995,-0.010,0.010,0.012,0.000,0.000,0.000,0.000,1,2,0,2,7,255,1224,300,65,1224
stim,2511,2511,0,798303.829,0.991,0.051,-0.068,-0.099,2343,0,173,2487,147,925,26,631,1,0.000,3,0,1.228,0.135,-0.820,-0.160,-0.900,-0.152,-0.101,0.993,-0.020,-0.134,0.064,0.000,0.000,0.000,0.000,1,2,0,2,7,255,1224,300,70,1224
stim,2527,2527,0,798308.830,0.991,0.052,-0.068,-0.099,2351,1,175,2464,205,925,30,621,1,0.000,3,0,1.435,0.135,-1.360,-0.220,-0.400,-0.142,-0.082,0.980,-0.020,-0.134,0.064,0.000,0.000,0.000,0.000,1,2,0,2,7,255,1224,300,75,1224
stim,2527,2527,0,798313.829,0.991,0.051,-0.068,-0.099,2341,0,178,2471,207,919,29,628,1,0.000,3,0,0.710,0.048,0.520,0.200,0.440,-0.143,-0.075,0.980,0.002,0.048,-0.088,0.000,0.000,0.000,0.000,1,2,0,2,7,255,1224,300,80,1224
stim,2527,2527,0,798318.829,0.991,0.051,-0.068,-0.099,2339,0,174,2487,141,928,28,631,1,0.000,3,0,1.287,0.049,1.260,0.260,0.020,-0.148,-0.092,0.995,0.008,0.048,-0.088,0.000,0.000,0.000,0.000,1,2,0,2,7,255,1224,300,85,1224
stim,2527,2527,0,798323.829,0.991,0.051,-0.068,-0.099,2345,0,175,2464,133,929,28,624,1,0.000,3,0,0.933,0.043,-0.880,-0.220,-0.220,-0.145,-0.092,0.989,0.008,-0.042,0.008,0.000,0.000,0.000,0.000,1,2,0,2,7,255,1224,300,90,1224
stim,2543,2543,0,798328.829,0.991,0.051,-0.068,-0.099,2344,0,168,2470,185,925,26,629,1,0.000,3,0,0.729,0.043,-0.580,-0.040,0.440,-0.145,-0.081,0.978,0.008,-0.042,0.008,0.000,0.000,0.000,0.000,1,2,0,2,7,255,1224,300,95,1224
stim,2543,2543,0,798333.829,0.991,0.051,-0.068,-0.099,2343,0,179,2479,177,928,28,627,1,0.000,3,0,1.137,0.045,1.020,0.200,-0.460,-0.155,-0.097,0.995,-0.008,-0.044,0.008,0.000,0.000,0.000,0.000,1,2,0,2,7,255,1224,300,100,1224
stim,2559,2559,0,798338.829,0.991,0.051,-0.068,-0.099,2347,0,171,2475,145,923,26,624,1,0.000,3,0,1.047,0.018,-0.400,-0.480,-0.840,-0.142,-0.086,0.991,-0.008,0.016,0.018,0.000,0.000,0.000,0.000,1,2,0,2,7,255,1224,300,105,1224
stim,2559,2559,0,798343.829,0.991,0.051,-0.068,-0.099,2345,0,179,2473,147,927,31,631,1,0.000,3,0,1.260,0.049,0.100,0.200,1.240,-0.135,-0.075,0.975,0.046,0.016,0.018,0.000,0.000,0.000,0.000,1,2,0,2,7,255,1224,300,110,1224
stim,2591,2591,0,798348.829,0.991,0.051,-0.068,-0.099,2350,1,179,2464,135,929,27,629,1,0.000,3,0,0.569,0.049,0.160,0.500,-0.220,-0.163,-0.101,0.996,0.046,0.016,0.018,0.000,0.000,0.000,0.000,1,2,0,2,7,255,1224,300,115,1224
stim,2591,2591,0,798353.829,0.991,0.051,-0.068,-0.099,2350,0,171,2472,147,924,30,624,1,0.000,3,0,1.561,0.075,-0.200,-0.900,-1.260,-0.141,-0.086,0.999,0.070,0.028,0.092,0.000,0.000,0.000,0.000,1,2,0,2,7,255,1224,300,120,1224
stim,2591,2591,0,798358.829,0.991,0.051,-0.068,-0.099,2357,0,173,2475,165,925,25,629,1,0.000,3,0,1.519,0.072,0.280,0.200,1.480,-0.136,-0.078,0.971,0.066,0.028,0.092,0.000,0.000,0.000,0.000,1,2,0,2,7,255,1224,300,125,1224
stim,2591,2591,0,798363.829,0.991,0.051,-0.068,-0.099,2355,0,179,2475,157,927,33,622,1,0.000,3,0,1.109,0.072,-0.200,0.820,-0.720,-0.165,-0.098,0.993,0.066,0.028,0.080,0.000,0.000,0.000,0.000,1,2,0,2,7,255,1224,300,130,1224
stim,2591,2591,0,798368.829,0.991,0.051,-0.068,-0.099,2348,0,176,2467,152,926,27,629,1,0.000,3,0,1.476,0.101,0.160,-1.440,-0.280,-0.132,-0.083,1.001,0.066,0.076,0.080,0.000,0.000,0.000,0.000,1,2,0,2,7,255,1224,300,135,1224
stim,2591,2591,0,798373.829,0.991,0.051,-0.068,-0.099,2347,0,177,2475,156,929,33,631,1,0.000,3,0,1.419,0.114,-0.080,1.060,0.940,-0.155,-0.083,0.962,-0.114,0.000,0.080,0.000,0.000,0.000,0.000,1,2,0,2,7,255,1224,300,140,1224
stim,2591,2591,0,798378.829,0.991,0.051,-0.068,-0.099,2356,0,173,2476,150,924,30,630,1,0.000,3,0,1.152,0.074,0.160,-0.040,-1.140,-0.145,-0.100,1.012,0.074,0.000,0.100,0.000,0.000,0.000,0.000,1,2,0,2,7,255,1224,300,145,1224
stim,2609,2609,0,798383.829,0.991,0.051,-0.068,-0.099,2348,2,174,2487,160,931,30,630,1,0.000,3,0,1.429,0.006,0.040,-1.020,1.000,-0.142,-0.076,0.970,0.006,0.000,-0.190,0.000,0.000,0.000,0.000,1,2,0,2,7,255,1224,300,150,1224
stim,2609,2609,0,798388.829,0.991,0.051,-0.068,-0.099,2347,0,174,2477,151,927,27,631,1,0.000,3,0,1.675,0.086,-0.080,1.480,-0.780,-0.154,-0.096,0.997,0.006,-0.086,0.102,0.000,0.000,0.000,0.000,1,2,0,2,7,255,1224,300,155,1224
stim,2609,2609,0,798393.829,0.991,0.051,-0.068,-0.099,2333,0,160,2475,157,917,29,631,1,0.000,3,0,1.705,0.054,0.400,-1.560,0.560,-0.137,-0.083,0.986,0.006,0.054,-0.034,0.000,0.000,0.000,0.000,1,2,0,2,7,255,1224,300,160,1224
stim,2609,2609,0,798398.829,0.991,0.051,-0.068,-0.099,2351,0,173,2471,161,927,25,624,1,0.000,3,0,1.345,0.049,-0.520,1.240,-0.040,-0.158,-0.087,0.982,-0.042,-0.026,-0.034,0.000,0.000,0.000,0.000,1,2,0,2,7,255,1224,300,165,1224
stim,2609,2609,0,798403.829,0.991,0.051,-0.068,-0.099,2341,1,169,2464,163,924,28,623,1,0.000,3,0,1.093,0.086,0.640,-0.840,-0.280,-0.136,-0.093,0.997,0.082,-0.026,-0.034,0.000,0.000,0.000,0.000,1,2,0,2,7,255,1224,300,170,1224
stim,2624,2624,0,798408.829,0.991,0.051,-0.068,-0.099,2353,0,171,2469,163,927,30,628,1,0.000,3,0,0.971,0.111,-0.340,0.500,0.760,-0.158,-0.076,0.978,-0.108,-0.026,-0.042,0.000,0.000,0.000,0.000,1,2,0,2,7,255,1224,300,175,1224
