condition_phase,condition_phase_elapsed_ms,condition_elapsed_ms,is_stimulation_on,t_ms,L_q0,L_q1,L_q2,L_q3,L_heel1,L_mid1,L_fore1,L_heel2,L_fore3,L_mid2,L_fore4,L_fore2,L_cadence,L_speed,L_steps,L_zupt,L_gyroNorm,L_accH,L_gyro_x,L_gyro_y,L_gyro_z,L_acc_x,L_acc_y,L_acc_z,L_nav_ax,L_nav_ay,L_nav_az,L_stepVel,L_stepVelj,L_stepDispRaw,L_stepDispZUPT,L_gaitEvent,L_motorMode,L_motorActive,L_motorAlignment,L_motorRegionMask,L_motorAmplitude,L_motorIntervalMs,L_motorDurationMs,L_motorPhaseMs,L_motorCycleMs
baseline,6080,6080,0,119367.411,0.053,-0.151,0.076,0.984,0,0,17,0,3247,0,0,59,38,0.151,24,0,116.497,7.516,28.560,49.780,101.380,0.456,-0.082,1.009,-7.314,1.732,-1.908,0.000,0.000,0.264,0.189,0,0,0,0,7,255,0,250,0,0
baseline,6080,6080,0,119372.411,0.058,-0.152,0.078,0.984,0,0,21,0,3288,0,0,57,38,0.151,24,0,117.277,7.356,26.060,45.320,104.980,0.412,-0.093,1.017,-7.104,1.908,-1.908,0.000,0.000,0.264,0.189,0,0,0,0,7,255,0,250,0,0
baseline,6080,6080,0,119377.411,0.062,-0.154,0.079,0.983,0,0,25,0,3307,0,0,57,38,0.151,24,0,115.421,7.065,22.160,40.880,105.640,0.364,-0.104,1.005,-6.760,2.054,-1.776,0.000,0.000,0.264,0.189,0,0,0,0,7,255,0,250,0,0
baseline,6095,6095,0,119382.411,0.067,-0.155,0.081,0.982,0,0,21,0,3291,0,0,55,38,0.151,24,0,111.723,6.701,19.640,36.300,103.820,0.320,-0.118,0.989,-6.332,2.194,-1.776,0.000,0.000,0.264,0.189,0,0,0,0,7,255,0,250,0,0
baseline,6095,6095,0,119387.411,0.071,-0.156,0.082,0.982,0,0,21,0,3299,0,0,59,38,0.151,24,0,107.641,6.368,18.000,32.020,101.180,0.285,-0.131,0.990,-5.922,2.342,-1.782,0.000,0.000,0.264,0.189,0,0,0,0,7,255,0,250,0,0
baseline,6127,6127,0,119392.411,0.075,-0.157,0.083,0.981,0,0,20,0,3289,0,0,55,38,0.151,24,0,103.360,6.180,13.920,27.200,98.740,0.252,-0.147,1.003,-5.646,2.512,-1.782,0.000,0.000,0.264,0.189,0,0,0,0,7,255,0,250,0,0
baseline,6127,6127,0,119397.412,0.079,-0.158,0.084,0.981,0,0,24,0,3304,0,0,59,38,0.151,24,0,97.724,6.072,6.720,21.820,95.020,0.215,-0.154,1.004,-5.432,2.714,-1.610,0.000,0.000,0.264,0.189,0,0,0,0,7,255,0,250,0,0
baseline,6127,6127,0,119402.411,0.083,-0.158,0.085,0.980,0,0,20,0,3316,0,0,55,38,0.151,24,0,90.860,5.853,-0.360,17.180,89.220,0.186,-0.156,0.980,-5.126,2.826,-1.610,0.000,0.000,0.264,0.189,0,0,0,0,7,255,0,250,0,0
baseline,6127,6127,0,119407.411,0.087,-0.159,0.085,0.980,0,0,21,0,3299,0,0,57,38,0.151,24,0,83.833,5.592,-4.580,12.560,82.760,0.171,-0.161,0.944,-4.810,2.852,-1.664,0.000,0.000,0.264,0.189,0,0,0,0,7,255,0,250,0,0
baseline,6127,6127,0,119412.411,0.090,-0.159,0.085,0.979,0,0,21,0,3287,0,0,57,38,0.151,24,0,76.852,5.397,-6.420,8.040,76.160,0.155,-0.157,0.926,-4.582,2.852,-1.968,0.000,0.000,0.264,0.189,0,0,0,0,7,255,0,250,0,0
baseline,6127,6127,0,119417.411,0.093,-0.159,0.085,0.979,0,0,21,0,3323,0,0,59,38,0.151,24,0,69.257,5.208,-8.920,4.380,68.540,0.142,-0.148,0.929,-4.384,2.812,-2.006,0.000,0.000,0.264,0.189,0,0,0,0,7,255,0,250,0,0
baseline,6160,6160,0,119422.411,0.096,-0.158,0.085,0.979,0,0,23,0,3295,0,0,59,38,0.151,24,0,61.845,5.070,-13.440,0.900,60.360,0.136,-0.134,0.932,-4.268,2.736,-2.006,0.000,0.000,0.264,0.189,0,0,0,0,7,255,0,250,0,0
baseline,6160,6160,0,119427.411,0.098,-0.158,0.084,0.979,0,0,23,0,3311,0,0,55,38,0.151,24,0,55.737,4.951,-19.040,-1.600,52.360,0.142,-0.120,0.924,-4.216,2.596,-1.988,0.000,0.000,0.264,0.189,0,0,0,0,7,255,0,250,0,0
baseline,6160,6160,0,119432.411,0.100,-0.158,0.084,0.979,0,0,22,0,3299,0,0,60,38,0.151,24,0,51.744,4.858,-24.300,-3.860,45.520,0.143,-0.111,0.896,-4.212,2.420,-1.988,0.000,0.000,0.264,0.189,0,0,0,0,7,255,0,250,0,0
baseline,6160,6160,0,119437.413,0.102,-0.157,0.083,0.979,0,0,23,0,3317,0,0,68,38,0.151,24,0,48.735,4.711,-27.540,-6.240,39.720,0.141,-0.100,0.868,-4.124,2.278,-2.230,0.000,0.000,0.264,0.189,0,0,0,0,7,255,0,250,0,0
baseline,6160,6160,0,119442.411,0.104,-0.156,0.082,0.979,0,0,29,0,3292,0,0,59,38,0.151,24,0,45.274,4.512,-28.500,-8.320,34.180,0.136,-0.089,0.843,-3.986,2.114,-2.454,0.000,0.000,0.264,0.189,0,0,0,0,7,255,0,250,0,0
baseline,6160,6160,0,119447.411,0.105,-0.155,0.081,0.979,0,0,20,0,3314,0,0,56,38,0.151,24,0,41.488,4.318,-28.080,-10.820,28.560,0.131,-0.080,0.833,-3.840,1.974,-2.636,0.000,0.000,0.264,0.189,0,0,0,0,7,255,0,250,0,0
baseline,6160,6160,0,119452.411,0.106,-0.154,0.079,0.979,0,0,22,0,3304,0,0,57,38,0.151,24,0,38.467,4.175,-27.460,-13.520,23.300,0.129,-0.070,0.830,-3.740,1.856,-2.684,0.000,0.000,0.264,0.189,0,0,0,0,7,255,0,250,0,0
baseline,6160,6160,0,119457.411,0.107,-0.153,0.078,0.979,0,0,26,0,3319,0,0,69,38,0.151,24,0,36.623,4.077,-26.680,-16.680,18.740,0.126,-0.061,0.827,-3.682,1.750,-2.684,0.000,0.000,0.264,0.189,0,0,0,0,7,255,0,250,0,0
baseline,6175,6175,0,119462.411,0.108,-0.152,0.077,0.979,0,0,22,0,3299,0,0,56,38,0.151,24,0,35.461,3.965,-25.580,-19.980,14.280,0.125,-0.049,0.822,-3.610,1.640,-2.684,0.000,0.000,0.264,0.189,0,0,0,0,7,255,0,250,0,0
baseline,6175,6175,0,119467.411,0.109,-0.151,0.076,0.980,0,0,20,0,3304,0,0,67,38,0.151,24,0,33.918,3.856,-23.140,-23.100,9.020,0.124,-0.042,0.825,-3.546,1.514,-2.680,0.000,0.000,0.264,0.189,0,0,0,0,7,255,0,250,0,0
baseline,6191,6191,0,119472.411,0.109,-0.149,0.075,0.980,0,0,24,0,3261,0,0,67,38,0.151,24,0,33.073,3.788,-20.140,-25.960,3.780,0.121,-0.034,0.839,-3.504,1.438,-2.628,0.000,0.000,0.264,0.189,0,0,0,0,7,255,0,250,0,0
baseline,6191,6191,0,119477.411,0.109,-0.148,0.075,0.980,0,0,24,0,3285,0,0,61,38,0.151,24,0,35.372,3.741,-21.360,-28.160,1.400,0.113,-0.006,0.836,-3.480,1.374,-2.466,0.000,0.000,0.264,0.189,0,0,0,0,7,255,0,250,0,0
baseline,6191,6191,0,119482.411,0.109,-0.146,0.074,0.980,0,0,16,0,3277,0,0,57,38,0.151,24,0,37.676,3.509,-23.500,-29.380,-2.020,0.129,0.021,0.804,-3.328,1.114,-2.466,0.000,0.000,0.264,0.189,0,0,0,0,7,255,0,250,0,0
baseline,6191,6191,0,119487.411,0.108,-0.145,0.073,0.981,0,0,24,0,3318,0,0,57,38,0.151,24,0,34.265,3.509,-12.640,-29.020,-13.120,0.135,-0.038,0.824,-3.328,1.114,-2.608,0.000,0.000,0.264,0.189,0,0,0,0,7,255,0,250,0,0
baseline,6207,6207,0,119492.411,0.108,-0.143,0.073,0.981,0,0,9,0,3291,0,0,60,38,0.151,24,0,32.005,3.568,-8.740,-28.520,-11.600,0.104,-0.037,0.865,-3.308,1.338,-2.608,0.000,0.000,0.264,0.189,0,0,0,0,7,255,0,250,0,0
baseline,6207,6207,0,119497.411,0.107,-0.142,0.072,0.981,0,0,12,0,3275,0,0,57,38,0.151,24,0,36.865,3.585,-18.320,-29.860,-11.480,0.137,0.079,0.850,-3.326,1.338,-2.160,0.000,0.000,0.264,0.189,0,0,0,0,7,255,0,250,0,0
baseline,6239,6239,0,119502.411,0.106,-0.140,0.071,0.982,0,0,9,0,3281,0,0,57,38,0.151,24,0,38.348,3.599,-8.920,-27.980,-24.660,0.087,-0.034,0.842,-3.308,1.418,-2.160,0.000,0.000,0.264,0.189,0,0,0,0,7,255,0,250,0,0
baseline,6239,6239,0,119507.411,0.105,-0.139,0.071,0.982,0,0,10,0,3299,0,0,70,38,0.151,24,0,35.565,3.195,-13.000,-27.860,-17.880,0.133,0.083,0.832,-3.186,0.240,-2.282,0.000,0.000,0.264,0.189,0,0,0,0,7,255,0,250,0,0
baseline,6239,6239,0,119512.411,0.104,-0.137,0.070,0.983,0,0,9,0,3271,0,0,57,38,0.151,24,0,43.337,3.195,-5.260,-31.080,-29.740,0.083,0.011,0.852,-3.032,1.006,-2.282,0.000,0.000,0.264,0.189,0,0,0,0,7,255,0,250,0,0
baseline,6239,6239,0,119517.411,0.103,-0.136,0.070,0.983,0,0,11,0,3317,0,0,65,38,0.151,24,0,41.261,3.192,-8.980,-30.060,-26.800,0.140,0.105,0.870,-3.186,0.190,-2.086,0.000,0.000,0.264,0.189,0,0,0,0,7,255,0,250,0,0
baseline,6239,6239,0,119522.411,0.101,-0.134,0.070,0.983,0,0,19,0,3327,0,0,67,38,0.151,24,0,49.949,3.152,-6.040,-34.200,-35.900,0.101,0.032,0.882,-3.048,0.802,-1.906,0.000,0.000,0.264,0.189,0,0,0,0,7,255,0,250,0,0
baseline,6239,6239,0,119527.411,0.101,-0.133,0.072,0.983,0,0,8,0,3311,0,0,55,38,0.151,24,0,68.115,3.152,53.340,-41.100,-10.260,-0.067,0.058,1.380,-3.048,0.802,-1.798,0.000,0.000,0.264,0.189,0,0,0,0,7,255,0,250,0,0
baseline,6255,6255,0,119532.411,0.112,-0.129,0.088,0.981,0,0,7,0,3232,0,0,55,38,0.151,24,0,463.953,2.847,324.340,-95.780,317.620,-0.833,0.888,2.531,-2.732,0.802,3.326,0.000,0.000,0.264,0.189,0,0,0,0,7,255,0,250,0,0
baseline,6255,6255,0,119537.411,0.136,-0.121,0.094,0.979,0,0,1,4,3187,0,0,47,38,0.151,24,0,585.245,3.965,44.560,-141.860,566.040,-0.488,3.146,2.809,3.028,-2.560,17.340,0.000,0.000,0.264,0.189,0,0,0,0,7,255,0,250,0,0
baseline,6255,6255,0,119542.411,0.146,-0.115,0.087,0.979,0,0,0,11,2985,0,0,47,38,0.151,24,0,317.628,9.865,-200.800,-110.740,219.780,-1.160,1.646,2.322,5.202,-8.382,17.344,0.000,0.000,0.264,0.189,0,0,0,0,7,255,0,250,0,0
baseline,6255,6255,0,119547.411,0.149,-0.109,0.075,0.980,4,0,0,227,2603,0,0,59,38,0.151,24,0,301.340,12.752,-284.420,-85.960,50.220,-1.386,0.307,1.059,9.610,-8.382,17.344,0.000,0.000,0.264,0.189,0,0,0,0,7,255,0,250,0,0
baseline,6271,6271,0,119552.411,0.149,-0.107,0.063,0.981,209,0,0,615,2287,0,0,59,38,0.151,24,0,279.223,9.615,-278.940,-3.140,-12.160,-0.823,0.336,0.607,9.610,0.298,3.184,0.000,0.000,0.264,0.189,0,0,0,0,7,255,0,250,0,0
baseline,6271,6271,0,119557.411,0.146,-0.108,0.054,0.982,955,0,0,1161,2014,31,0,63,38,0.151,24,0,224.234,7.322,-189.160,49.960,-109.560,-0.395,0.646,0.150,7.316,0.298,-2.128,0.000,0.000,0.264,0.189,0,0,0,0,7,255,0,250,0,0
baseline,6271,6271,0,119562.411,0.144,-0.111,0.050,0.982,1751,0,0,1498,1807,54,0,73,38,0.151,24,0,132.054,6.783,-88.260,80.420,-56.400,0.086,1.561,0.417,5.214,-4.338,-4.222,0.000,0.000,0.264,0.189,0,0,0,0,7,255,0,250,0,0
baseline,6271,6271,0,119567.411,0.145,-0.116,0.050,0.981,2182,0,0,1741,1597,75,0,75,38,0.151,24,0,110.483,14.427,15.140,105.940,27.460,0.152,2.061,0.721,2.688,-14.174,-4.222,0.000,0.000,0.264,0.189,0,0,0,0,7,255,0,250,0,0
baseline,6287,6287,0,119572.411,0.149,-0.119,0.052,0.980,2575,0,0,2259,1419,94,0,79,38,0.151,24,0,128.376,14.427,44.620,72.300,96.240,-0.690,0.623,0.851,2.688,-14.174,-0.854,0.000,0.000,0.264,0.189,0,0,0,0,7,255,0,250,0,0
baseline,6287,6287,0,119577.411,0.157,-0.116,0.051,0.980,2863,0,0,2637,1276,120,0,91,38,0.151,24,0,190.361,6.778,-57.620,-58.680,171.680,-1.595,-1.279,0.828,6.168,-2.810,-0.386,0.000,0.000,0.264,0.189,0,0,0,0,7,255,0,250,0,0
baseline,6304,6304,0,119582.412,0.156,-0.109,0.044,0.981,2981,0,0,2826,1155,167,0,101,38,0.151,24,0,219.901,19.577,-167.420,-141.260,-19.300,-1.640,-1.561,1.056,8.262,17.748,0.412,0.000,0.000,0.264,0.189,0,0,0,0,7,255,0,250,0,0
baseline,6304,6304,0,119587.413,0.152,-0.103,0.037,0.982,3051,0,0,2909,1047,189,0,99,38,0.151,24,0,226.550,19.577,-165.100,-110.920,-108.460,-1.094,-0.846,0.994,8.262,17.748,0.834,0.000,0.000,0.264,0.189,1,0,0,0,7,255,0,250,0,0
baseline,6304,6304,0,119592.411,0.145,-0.100,0.031,0.984,3131,0,0,2992,975,222,0,104,38,0.151,24,0,240.089,13.277,-132.020,-56.120,-192.520,-0.522,-0.520,0.577,5.748,11.968,0.834,0.000,0.000,0.264,0.189,1,0,0,0,7,255,0,250,0,0
baseline,6304,6304,0,119597.411,0.137,-0.098,0.028,0.985,3195,0,0,3079,909,248,0,111,38,0.151,24,0,206.162,7.487,-74.340,-37.500,-188.600,-0.087,-0.667,0.578,2.436,7.080,-3.826,0.000,0.000,0.264,0.189,1,0,0,0,7,255,0,250,0,0
baseline,6335,6335,0,119602.411,0.129,-0.098,0.027,0.986,3195,0,0,3089,851,271,0,117,38,0.151,24,0,178.224,7.192,4.340,-14.740,-177.560,0.327,-0.731,0.888,-1.856,6.948,-3.826,0.000,0.000,0.264,0.189,1,0,0,0,7,255,0,250,0,0
baseline,6335,6335,0,119607.411,0.124,-0.099,0.028,0.987,3225,0,0,3129,838,344,0,123,38,0.151,24,0,130.910,9.236,43.140,11.520,-123.060,0.801,-0.587,1.321,-6.344,6.712,-2.410,0.000,0.000,0.264,0.189,1,0,0,0,7,255,0,250,0,0
baseline,6335,6335,0,119612.412,0.122,-0.100,0.030,0.987,3247,0,0,3160,825,392,0,122,38,0.151,25,0,48.992,12.015,30.140,19.500,-33.340,0.904,-0.277,1.318,-11.192,4.370,0.966,0.000,0.000,0.264,0.189,1,0,0,0,7,255,0,250,0,0
baseline,6335,6335,0,119617.411,0.124,-0.098,0.030,0.987,3248,0,0,3161,807,424,0,125,38,0.151,25,0,62.814,11.259,-6.660,-28.340,55.660,0.599,-0.087,0.995,-11.192,1.228,0.966,0.000,0.000,0.264,0.189,1,0,0,0,7,255,0,250,0,0
baseline,6335,6335,0,119622.411,0.129,-0.094,0.029,0.987,3269,0,0,3194,1335,475,9,149,38,0.151,25,0,142.307,7.610,-31.200,-82.060,112.000,0.112,-0.115,1.003,-7.510,1.228,-0.496,0.000,0.000,0.264,0.189,1,0,0,0,7,255,0,250,0,0
baseline,6335,6335,0,119627.411,0.135,-0.091,0.028,0.986,3274,0,0,3209,2542,509,19,160,38,0.151,25,0,147.540,3.338,-36.500,-75.580,121.340,-0.348,-0.174,0.925,-2.986,1.492,-0.524,0.000,0.000,0.264,0.189,1,0,0,0,7,255,0,250,0,0
baseline,6352,6352,0,119632.411,0.138,-0.088,0.029,0.986,3272,0,0,3181,3059,542,29,175,38,0.151,25,0,99.675,2.812,-1.460,-62.340,77.760,-0.566,-0.033,0.751,1.334,2.476,-0.524,0.000,0.000,0.264,0.189,1,0,0,0,7,255,0,250,0,0
baseline,6352,6352,0,119637.411,0.138,-0.086,0.031,0.986,3271,0,0,3191,3255,606,37,201,38,0.151,25,0,76.386,4.003,45.720,-60.380,9.940,-0.384,0.444,1.063,3.146,2.476,-0.524,0.000,0.000,0.264,0.189,2,0,0,0,7,255,0,250,0,0
baseline,6352,6352,0,119642.411,0.134,-0.085,0.035,0.987,3257,0,0,3175,3315,647,53,227,38,0.151,25,0,116.197,3.942,79.340,-31.880,-78.680,-0.139,0.512,1.598,3.146,-2.376,1.294,0.000,0.000,0.264,0.189,2,0,0,0,7,255,0,250,0,0
baseline,6352,6352,0,119647.411,0.131,-0.086,0.036,0.987,3275,0,0,3208,3404,684,73,269,38,0.151,25,0,87.460,2.380,35.640,8.460,-79.420,0.046,0.075,1.545,0.132,-2.376,5.030,0.000,0.000,0.264,0.189,2,0,0,0,7,255,0,250,0,0
baseline,6367,6367,0,119652.411,0.129,-0.087,0.035,0.987,3273,0,0,3204,3429,744,82,381,38,0.151,25,0,48.812,2.658,-2.320,27.560,-40.220,0.173,-0.056,1.263,-2.648,0.232,5.030,0.000,0.000,0.264,0.189,2,0,0,0,7,255,0,250,0,0
baseline,6367,6367,0,119657.411,0.129,-0.087,0.034,0.987,3285,0,0,3199,3629,781,128,412,38,0.151,25,0,24.879,2.840,-13.800,19.640,-6.540,0.047,-0.184,0.915,-2.648,1.026,1.998,0.000,0.000,0.264,0.189,2,0,0,0,7,255,0,250,0,0
baseline,6387,6387,0,119662.411,0.129,-0.087,0.034,0.987,3255,0,0,3171,3665,776,110,435,38,0.151,25,0,10.659,3.305,-10.080,-2.400,2.500,-0.182,-0.172,0.770,-2.274,2.398,-1.272,0.000,0.000,0.264,0.189,2,0,0,0,7,255,0,250,0,0
baseline,6387,6387,0,119667.411,0.129,-0.087,0.034,0.987,3291,0,0,3208,3693,810,89,477,38,0.151,25,0,15.513,2.402,5.060,-12.660,-7.400,-0.262,0.029,0.854,0.138,2.398,-1.272,0.000,0.000,0.264,0.189,2,0,0,0,7,255,0,250,0,0
baseline,6387,6387,0,119672.411,0.128,-0.087,0.034,0.987,3279,0,0,3179,3691,811,117,499,38,0.151,25,0,31.397,1.689,17.520,-1.680,-26.000,-0.254,0.217,1.051,1.242,1.144,-1.214,0.000,0.000,0.264,0.189,2,0,0,0,7,255,0,250,0,0
baseline,6387,6387,0,119677.411,0.126,-0.088,0.035,0.988,3255,0,0,3161,3694,827,95,533,38,0.151,25,0,43.642,1.324,16.100,16.220,-37.180,-0.244,0.106,1.066,1.242,0.458,0.824,0.000,0.000,0.264,0.189,2,0,0,0,7,255,0,250,0,0
baseline,6391,6391,0,119682.411,0.124,-0.088,0.035,0.988,3293,0,0,3188,3707,847,106,567,38,0.151,25,0,37.451,0.996,12.760,2.780,-35.100,-0.185,-0.083,0.869,0.884,0.458,0.824,0.000,0.000,0.264,0.189,2,0,0,0,7,255,0,250,0,0
baseline,6391,6391,0,119687.411,0.123,-0.088,0.036,0.988,3281,0,4,3181,3712,865,117,591,38,0.151,25,0,38.362,1.079,12.940,-13.880,-33.340,-0.145,0.014,0.973,0.214,1.058,-0.260,0.000,0.000,0.264,0.189,2,0,0,0,7,255,0,250,0,0
baseline,6415,6415,0,119692.411,0.122,-0.087,0.036,0.988,3251,0,3,3144,3701,856,111,601,38,0.151,25,0,26.259,1.703,6.840,-16.080,-19.600,-0.125,-0.060,0.955,-0.100,1.700,-0.528,0.000,0.000,0.264,0.189,2,0,0,0,7,255,0,250,0,0
baseline,6416,6416,0,119697.411,0.122,-0.087,0.036,0.988,3271,0,7,3160,3717,887,104,633,38,0.151,25,0,17.676,1.063,9.160,-11.980,-9.220,-0.165,0.022,0.958,-0.100,1.058,-0.370,0.000,0.000,0.264,0.189,2,0,0,0,7,255,0,250,0,0
baseline,6432,6432,0,119702.411,0.121,-0.086,0.037,0.988,3288,0,12,3175,3723,888,115,633,38,0.151,25,0,20.140,1.039,11.480,-15.040,-6.900,-0.196,0.146,0.937,0.150,1.028,-0.428,0.000,0.000,0.264,0.189,2,0,0,0,7,255,0,250,0,0
baseline,6432,6432,0,119707.411,0.121,-0.086,0.037,0.988,3251,0,9,3129,3729,893,107,660,38,0.151,25,0,26.349,0.782,14.960,-17.540,-12.760,-0.188,0.207,0.979,0.778,-0.074,-0.370,0.000,0.000,0.264,0.189,2,0,0,0,7,255,0,250,0,0
baseline,6432,6432,0,119712.411,0.120,-0.085,0.038,0.988,3272,0,6,3157,3735,920,109,682,38,0.151,25,0,28.963,0.926,17.580,-15.340,-17.160,-0.161,0.188,0.977,0.778,-0.502,-0.054,0.000,0.000,0.264,0.189,2,0,0,0,7,255,0,250,0,0
baseline,6432,6432,0,119717.411,0.119,-0.085,0.039,0.989,3283,0,0,3151,3731,934,104,688,38,0.151,25,1,26.355,0.697,16.660,-12.840,-15.880,-0.132,0.137,0.993,0.484,-0.502,0.012,0.000,0.000,0.264,0.189,2,0,0,0,7,255,0,250,0,0
baseline,6447,6447,0,119722.411,0.118,-0.084,0.040,0.989,3303,0,7,3151,3732,943,91,704,38,0.151,25,1,18.810,0.100,12.700,-9.660,-9.960,-0.125,0.114,1.004,0.078,-0.062,0.012,0.000,0.000,0.264,0.189,2,0,0,0,7,255,0,250,0,0
baseline,6447,6447,0,119727.411,0.118,-0.084,0.041,0.989,3283,0,9,3179,3741,968,101,725,38,0.151,25,1,12.734,0.159,9.700,-7.900,-2.380,-0.147,0.122,0.980,0.078,0.138,0.012,0.000,0.000,0.264,0.189,2,0,0,0,7,255,0,250,0,0
baseline,6447,6447,0,119732.411,0.118,-0.084,0.042,0.989,3287,0,21,3160,3741,967,104,735,38,0.151,25,1,11.896,0.260,9.880,-6.060,2.680,-0.153,0.142,0.973,0.220,0.138,-0.094,0.000,0.000,0.264,0.189,2,0,0,0,7,255,0,250,0,0
baseline,6447,6447,0,119737.411,0.119,-0.084,0.042,0.988,3315,0,48,3169,3749,997,101,752,38,0.151,25,1,13.207,0.356,10.920,-3.560,6.520,-0.169,0.119,0.961,0.328,0.138,-0.138,0.000,0.000,0.264,0.189,2,0,0,0,7,255,0,250,0,0
baseline,6447,6447,0,119742.411,0.119,-0.084,0.043,0.988,3309,0,118,3181,3757,1000,101,777,38,0.151,25,1,15.368,0.495,11.420,-2.640,9.940,-0.183,0.084,0.946,0.436,0.234,-0.246,0.000,0.000,0.264,0.189,2,0,0,0,7,255,0,250,0,0
baseline,6447,6447,0,119747.411,0.119,-0.084,0.043,0.988,3275,0,131,3154,3757,1010,109,792,38,0.151,25,1,16.193,0.778,10.680,-0.880,12.140,-0.195,0.078,0.959,0.502,0.594,-0.262,0.000,0.000,0.264,0.189,2,0,0,0,7,255,0,250,0,0
baseline,6464,6464,0,119752.411,0.120,-0.085,0.043,0.988,3315,0,154,3180,3765,1043,111,821,38,0.151,25,1,16.513,0.898,11.480,0.840,11.840,-0.205,0.078,0.941,0.572,0.692,-0.404,0.000,0.000,0.264,0.189,2,0,0,0,7,255,0,250,0,0
baseline,6464,6464,0,119757.411,0.120,-0.085,0.044,0.988,3309,0,153,3184,3789,1056,125,839,38,0.151,25,1,17.202,0.965,13.980,3.640,9.340,-0.205,0.073,0.931,0.658,0.706,-0.418,0.000,0.000,0.264,0.189,2,0,0,0,7,255,0,250,0,0
baseline,6479,6479,0,119762.411,0.121,-0.086,0.044,0.988,3323,0,214,3195,3803,1083,133,857,38,0.151,25,1,19.649,0.995,17.940,3.640,7.140,-0.195,0.068,0.951,0.658,0.746,-0.418,0.000,0.000,0.264,0.189,2,0,0,0,7,255,0,250,0,0
baseline,6479,6479,0,119767.411,0.121,-0.086,0.045,0.988,3295,0,185,3183,3791,1091,133,870,38,0.151,25,1,19.238,0.931,17.700,4.740,5.860,-0.193,0.036,0.971,0.512,0.778,-0.338,0.000,0.000,0.264,0.189,2,0,0,0,7,255,0,250,0,0
baseline,6479,6479,0,119772.411,0.121,-0.087,0.045,0.988,3337,0,219,3183,3809,1123,133,903,38,0.151,25,1,19.177,1.030,17.080,2.480,8.360,-0.179,0.045,0.967,0.368,0.962,-0.224,0.000,0.000,0.264,0.189,2,0,0,0,7,255,0,250,0,0
baseline,6479,6479,0,119777.411,0.122,-0.087,0.046,0.988,3319,0,221,3219,3813,1143,141,918,38,0.151,25,1,19.864,1.027,16.660,-1.300,10.740,-0.183,0.065,0.950,0.360,0.962,-0.224,0.000,0.000,0.264,0.189,2,0,0,0,7,255,0,250,0,0
baseline,6495,6495,0,119782.411,0.122,-0.087,0.046,0.988,3309,0,211,3197,3812,1157,138,925,38,0.151,25,1,22.851,0.854,18.980,-2.040,12.560,-0.195,0.069,0.961,0.360,0.774,-0.228,0.000,0.000,0.264,0.189,2,0,0,0,7,255,0,250,0,0
baseline,6495,6495,0,119787.411,0.122,-0.087,0.047,0.988,3327,0,240,3241,3850,1191,149,953,38,0.151,25,1,21.005,0.895,18.000,-2.640,10.500,-0.221,0.061,0.964,0.450,0.774,-0.228,0.000,0.000,0.264,0.189,2,0,0,0,7,255,0,250,0,0
baseline,6512,6512,0,119792.411,0.123,-0.088,0.047,0.987,3351,0,278,3247,3867,1210,154,972,38,0.151,25,1,18.006,1.126,16.720,-3.320,5.800,-0.231,0.055,0.945,0.654,0.916,-0.228,0.000,0.000,0.264,0.189,2,0,0,0,7,255,0,250,0,0
baseline,6512,6512,0,119797.411,0.123,-0.088,0.047,0.987,3327,0,295,3221,3839,1212,149,987,38,0.151,25,1,17.984,1.205,17.580,-3.680,0.900,-0.224,0.051,0.924,0.696,0.984,-0.338,0.000,0.000,0.264,0.189,2,0,0,0,7,255,0,250,0,0
baseline,6543,6543,0,119802.411,0.122,-0.088,0.048,0.987,3361,3,295,3251,3884,1246,157,1017,38,0.151,25,1,19.203,1.205,18.620,-4.240,-2.020,-0.207,0.060,0.926,0.696,0.984,-0.542,0.000,0.000,0.264,0.189,2,0,0,0,7,255,0,250,0,0
baseline,6543,6543,0,119807.411,0.122,-0.089,0.049,0.987,3373,0,331,3253,3896,1257,151,1045,38,0.151,25,1,20.478,1.017,19.580,-4.840,-3.540,-0.202,0.063,0.937,0.542,0.860,-0.542,0.000,0.000,0.264,0.189,2,0,0,0,7,255,0,250,0,0
baseline,6543,6543,0,119812.414,0.122,-0.089,0.049,0.987,3348,11,317,3231,3877,1251,151,1035,38,0.151,25,1,21.312,0.978,20.320,-4.900,-4.160,-0.208,0.071,0.947,0.520,0.828,-0.434,0.000,0.000,0.264,0.189,2,0,0,0,7,255,0,250,0,0
baseline,6543,6543,0,119817.411,0.122,-0.089,0.050,0.987,3396,20,339,3273,3903,1279,158,1075,38,0.151,25,1,22.859,0.936,21.840,-5.820,-3.420,-0.212,0.079,0.955,0.520,0.778,-0.320,0.000,0.000,0.264,0.189,2,0,0,0,7,255,0,250,0,0
baseline,6560,6560,0,119822.411,0.121,-0.089,0.051,0.987,3388,26,334,3276,3908,1299,152,1120,38,0.151,25,1,24.193,0.890,23.180,-6.380,-2.700,-0.208,0.090,0.967,0.520,0.722,-0.222,0.000,0.000,0.264,0.189,2,0,0,0,7,255,0,250,0,0
baseline,6560,6560,0,119827.411,0.121,-0.089,0.052,0.987,3388,40,337,3277,3925,1303,165,1104,38,0.151,25,1,25.035,0.809,23.620,-7.780,-2.880,-0.198,0.105,0.976,0.518,0.622,-0.102,0.000,0.000,0.264,0.189,2,0,0,0,7,255,0,250,0,0
baseline,6560,6560,0,119832.411,0.121,-0.089,0.053,0.987,3403,37,340,3281,3937,1313,184,1125,38,0.151,25,1,23.567,0.637,22.160,-7.660,-2.380,-0.193,0.110,0.993,0.428,0.472,-0.018,0.000,0.000,0.264,0.189,2,0,0,0,7,255,0,250,0,0
baseline,6560,6560,0,119837.411,0.121,-0.089,0.053,0.987,3412,41,367,3305,3947,1338,189,1143,38,0.151,25,1,21.701,0.614,20.200,-7.780,-1.540,-0.203,0.121,0.996,0.428,0.440,0.142,0.000,0.000,0.264,0.189,2,0,0,0,7,255,0,250,0,0
baseline,6560,6560,0,119842.411,0.121,-0.089,0.054,0.987,3387,51,367,3259,3939,1327,183,1141,38,0.151,25,1,20.536,0.596,19.160,-7.340,-0.860,-0.206,0.153,1.005,0.462,0.376,0.200,0.000,0.000,0.264,0.189,2,0,0,0,7,255,0,250,0,0
baseline,6560,6560,0,119847.411,0.121,-0.089,0.056,0.987,3429,57,421,3313,3988,1343,187,1179,38,0.151,25,1,20.213,0.490,19.100,-6.560,-0.860,-0.197,0.175,1.015,0.478,0.108,0.328,0.000,0.000,0.264,0.189,2,0,0,0,7,255,0,250,0,0
baseline,6560,6560,0,119852.411,0.121,-0.089,0.057,0.987,3419,73,424,3288,3997,1373,189,1179,38,0.151,25,1,19.235,0.488,18.000,-6.740,-0.740,-0.194,0.178,1.023,0.478,-0.096,0.426,0.000,0.000,0.264,0.189,2,0,0,0,7,255,0,250,0,0
baseline,6560,6560,0,119857.411,0.120,-0.089,0.057,0.987,3405,68,429,3284,3963,1367,199,1198,38,0.151,25,1,16.711,0.448,15.440,-6.380,-0.380,-0.197,0.174,1.034,0.438,-0.096,0.506,0.000,0.000,0.264,0.189,2,0,0,0,7,255,0,250,0,0
baseline,6576,6576,0,119862.411,0.120,-0.089,0.058,0.987,3413,75,444,3313,4015,1393,200,1211,38,0.151,25,1,12.763,0.427,11.420,-5.580,1.160,-0.185,0.167,1.033,0.426,-0.026,0.556,0.000,0.000,0.264,0.189,2,0,0,0,7,255,0,250,0,0
baseline,6576,6576,0,119867.411,0.121,-0.089,0.059,0.987,3429,73,456,3296,4019,1397,192,1225,38,0.151,25,1,10.328,0.295,8.000,-4.900,4.320,-0.168,0.163,1.018,0.294,0.018,0.556,0.000,0.000,0.264,0.189,2,0,0,0,7,255,0,250,0,0
baseline,6592,6592,0,119872.411,0.121,-0.089,0.059,0.987,3391,90,455,3275,3996,1400,189,1225,38,0.151,25,1,10.633,0.295,6.580,-5.640,6.160,-0.201,0.183,0.995,0.294,0.018,0.378,0.000,0.000,0.264,0.189,2,0,0,0,7,255,0,250,0,0
baseline,6592,6592,0,119877.411,0.121,-0.089,0.060,0.987,3415,108,459,3303,4027,1427,207,1251,38,0.151,25,1,10.363,0.549,6.580,-7.720,2.120,-0.242,0.193,1.000,0.544,-0.076,0.360,0.000,0.000,0.264,0.189,2,0,0,0,7,255,0,250,0,0
baseline,6592,6592,0,119882.411,0.121,-0.090,0.061,0.987,3425,119,470,3304,4051,1436,221,1261,38,0.151,25,1,9.965,0.724,7.080,-6.980,-0.680,-0.228,0.180,1.016,0.720,-0.076,0.360,0.000,0.000,0.264,0.189,2,0,0,0,7,255,0,250,0,0
baseline,6592,6592,0,119887.411,0.121,-0.090,0.061,0.987,3414,97,483,3294,4061,1446,206,1266,38,0.151,25,1,9.775,0.720,6.640,-7.160,-0.440,-0.211,0.179,1.021,0.720,0.024,0.462,0.000,0.000,0.264,0.189,2,0,0,0,7,255,0,250,0,0
baseline,6607,6607,0,119892.411,0.121,-0.090,0.061,0.987,3439,125,486,3305,4071,1464,236,1288,38,0.151,25,1,8.924,0.548,5.560,-6.980,0.060,-0.199,0.174,1.027,0.546,0.042,0.478,0.000,0.000,0.264,0.189,2,0,0,0,7,255,0,250,0,0
baseline,6607,6607,0,119897.411,0.121,-0.089,0.061,0.987,3427,126,487,3296,4077,1469,203,1289,38,0.151,25,1,6.718,0.414,-0.860,-4.600,4.820,-0.129,0.121,1.098,0.410,0.056,0.510,0.000,0.000,0.264,0.189,2,0,0,0,7,255,0,250,0,0
baseline,6639,6639,0,119902.411,0.122,-0.089,0.061,0.987,3409,137,537,3283,4060,1461,215,1287,38,0.151,25,1,18.786,0.606,-11.600,-4.420,14.100,-0.213,0.095,1.001,0.410,0.446,0.510,0.000,0.000,0.264,0.189,2,0,0,0,7,255,0,250,0,0
baseline,6639,6639,0,119907.411,0.122,-0.089,0.061,0.987,3431,119,558,3309,4095,1492,227,1303,38,0.151,25,1,14.071,0.614,-10.200,-6.620,7.080,-0.250,0.209,0.997,0.422,0.446,0.326,0.000,0.000,0.264,0.189,2,0,0,0,7,255,0,250,0,0
baseline,6639,6639,0,119912.411,0.122,-0.090,0.061,0.987,3415,131,571,3305,4095,1495,224,1319,38,0.151,25,1,6.891,0.645,-4.940,-4.720,0.900,-0.212,0.159,0.946,0.632,0.128,0.168,0.000,0.000,0.264,0.189,2,0,0,0,7,255,0,250,0,0
baseline,6639,6639,0,119917.411,0.122,-0.090,0.060,0.987,3408,125,571,3323,4095,1498,203,1331,38,0.151,25,1,7.460,0.645,-0.980,-7.220,-1.600,-0.192,0.129,0.997,0.632,0.128,0.136,0.000,0.000,0.264,0.189,2,0,0,0,7,255,0,250,0,0
baseline,6639,6639,0,119922.411,0.122,-0.089,0.060,0.987,3415,137,597,3319,4095,1503,233,1334,38,0.151,25,1,7.084,0.493,-3.360,-5.940,-1.900,-0.183,0.109,1.045,0.282,0.404,0.136,0.000,0.000,0.264,0.189,2,0,0,0,7,255,0,250,0,0
baseline,6639,6639,0,119927.411,0.122,-0.089,0.059,0.987,3426,133,601,3303,4095,1513,229,1336,38,0.151,25,1,12.131,0.600,-10.440,-5.020,3.600,-0.182,0.068,1.027,0.068,0.596,0.324,0.000,0.000,0.264,0.189,2,0,0,0,7,255,0,250,0,0
baseline,6655,6655,0,119932.411,0.122,-0.089,0.059,0.987,3416,125,611,3293,4095,1523,217,1339,38,0.151,25,1,14.929,0.600,-12.280,-6.380,5.600,-0.203,0.115,1.015,0.068,0.596,0.324,0.000,0.000,0.264,0.189,2,0,0,0,7,255,0,250,0,0
baseline,6655,6655,0,119937.411,0.122,-0.089,0.058,0.987,3403,160,623,3299,4095,1519,205,1341,38,0.151,25,1,14.407,0.612,-12.460,-4.240,5.860,-0.204,0.120,0.974,0.326,0.518,0.296,0.000,0.000,0.264,0.189,2,0,0,0,7,255,0,250,0,0
baseline,6655,6655,0,119942.411,0.123,-0.089,0.058,0.987,3380,154,615,3261,4095,1517,199,1337,38,0.151,25,1,11.361,0.610,-8.360,-7.040,3.100,-0.212,0.118,0.967,0.416,0.446,-0.090,0.000,0.000,0.264,0.189,2,0,0,0,7,255,0,250,0,0
baseline,6655,6655,0,119947.411,0.123,-0.089,0.057,0.987,3407,151,628,3293,4095,1512,207,1363,38,0.151,25,1,10.930,0.610,-9.160,-5.020,3.220,-0.206,0.107,1.002,0.416,0.446,-0.090,0.000,0.000,0.264,0.189,2,0,0,0,7,255,0,250,0,0
baseline,6672,6672,0,119952.411,0.123,-0.089,0.056,0.987,3409,159,633,3293,4095,1523,215,1356,38,0.151,25,1,14.261,0.591,-11.420,-7.600,3.900,-0.208,0.116,1.012,0.368,0.462,0.170,0.000,0.000,0.264,0.189,2,0,0,0,7,255,0,250,0,0
baseline,6672,6672,0,119957.411,0.123,-0.089,0.056,0.987,3385,155,653,3273,4095,1523,217,1361,38,0.151,25,1,14.725,0.591,-12.140,-7.600,3.420,-0.214,0.144,0.989,0.368,0.462,0.170,0.000,0.000,0.264,0.189,2,0,0,0,7,255,0,250,0,0
baseline,6672,6672,0,119962.411,0.123,-0.089,0.056,0.987,3356,158,639,3237,4095,1507,213,1341,38,0.151,25,1,14.375,0.478,-12.280,-7.400,1.040,-0.206,0.147,0.998,0.440,0.188,0.170,0.000,0.000,0.264,0.189,2,0,0,0,7,255,0,250,0,0
baseline,6672,6672,0,119967.411,0.123,-0.089,0.055,0.987,3405,155,654,3273,4095,1518,219,1382,38,0.151,25,1,14.702,0.478,-13.000,-6.860,0.300,-0.202,0.108,0.973,0.440,0.188,0.096,0.000,0.000,0.264,0.189,2,0,0,0,7,255,0,250,0,0
baseline,6688,6688,0,119972.411,0.123,-0.089,0.054,0.987,3370,148,665,3271,4095,1531,227,1385,38,0.151,25,1,14.378,0.634,-12.880,-6.120,-1.840,-0.216,0.109,0.966,0.440,0.456,-0.120,0.000,0.000,0.264,0.189,2,0,0,0,7,255,0,250,0,0
baseline,6688,6688,0,119977.411,0.123,-0.089,0.053,0.987,3343,139,661,3218,4095,1509,221,1373,38,0.151,25,1,16.415,0.581,-15.680,-3.620,-3.240,-0.163,0.117,1.029,0.360,0.456,-0.120,0.000,0.000,0.264,0.189,2,0,0,0,7,255,0,250,0,0
baseline,6688,6688,0,119982.411,0.123,-0.089,0.052,0.987,3355,117,671,3232,4095,1520,236,1392,38,0.151,25,1,19.689,0.460,-19.480,-2.840,0.360,-0.173,0.080,0.967,0.038,0.458,-0.160,0.000,0.000,0.264,0.189,2,0,0,0,7,255,0,250,0,0
baseline,6688,6688,0,119987.411,0.123,-0.089,0.051,0.987,3343,123,668,3235,4095,1518,270,1387,38,0.151,25,1,19.207,0.426,-18.800,-3.260,2.200,-0.193,0.101,0.980,0.038,0.424,-0.066,0.000,0.000,0.264,0.189,2,0,0,0,7,255,0,250,0,0
baseline,6704,6704,0,119992.411,0.124,-0.089,0.051,0.987,3327,147,672,3195,4095,1511,275,1385,38,0.151,25,1,18.614,0.492,-18.380,-2.040,2.120,-0.213,0.134,0.985,0.250,0.424,-0.066,0.000,0.000,0.264,0.189,2,0,0,0,7,255,0,250,0,0
baseline,6704,6704,0,119997.411,0.124,-0.089,0.050,0.987,3349,120,697,3227,4095,1523,264,1414,38,0.151,25,1,18.177,0.526,-18.140,0.040,-1.160,-0.215,0.135,0.982,0.506,0.144,0.022,0.000,0.000,0.264,0.189,2,0,0,0,7,255,0,250,0,0
baseline,6735,6735,0,120002.411,0.123,-0.090,0.049,0.987,3341,109,703,3211,4095,1532,302,1417,38,0.151,25,1,20.945,0.521,-20.380,2.120,-4.340,-0.201,0.134,0.982,0.506,0.126,0.022,0.000,0.000,0.264,0.189,2,0,0,0,7,255,0,250,0,0
baseline,6735,6735,0,120007.411,0.123,-0.090,0.048,0.987,3299,104,703,3175,4095,1511,334,1408,38,0.151,25,1,24.189,0.398,-22.760,-0.440,-8.180,-0.189,0.096,0.959,0.378,0.126,0.004,0.000,0.000,0.264,0.189,2,0,0,0,7,255,0,250,0,0
baseline,6735,6735,0,120012.412,0.123,-0.090,0.047,0.987,3321,119,736,3193,4095,1531,336,1434,38,0.151,25,1,26.278,0.430,-24.240,0.340,-10.140,-0.189,0.068,0.967,0.216,0.372,-0.230,0.000,0.000,0.264,0.189,2,0,0,0,7,255,0,250,0,0
baseline,6735,6735,0,120017.411,0.122,-0.090,0.045,0.987,3336,113,755,3190,4095,1523,351,1437,38,0.151,25,1,25.422,0.620,-23.260,1.560,-10.140,-0.168,0.054,0.955,0.140,0.604,-0.280,0.000,0.000,0.264,0.189,2,0,0,0,7,255,0,250,0,0
baseline,6735,6735,0,120022.411,0.122,-0.089,0.044,0.987,3303,122,757,3181,4095,1528,361,1447,38,0.151,25,1,22.042,0.608,-20.940,-1.480,-6.720,-0.145,0.067,0.925,-0.066,0.604,-0.390,0.000,0.000,0.264,0.189,2,0,0,0,7,255,0,250,0,0
baseline,6735,6735,0,120027.411,0.122,-0.089,0.043,0.988,3290,110,819,3173,4095,1546,372,1463,38,0.151,25,1,19.747,0.446,-19.160,-2.900,-3.800,-0.153,0.071,0.939,-0.124,0.428,-0.534,0.000,0.000,0.264,0.189,2,0,0,0,7,255,0,250,0,0
baseline,6754,6754,0,120032.411,0.122,-0.089,0.042,0.988,3291,141,829,3161,4095,1541,383,1459,38,0.151,25,1,15.983,0.446,-14.900,-4.360,-3.800,-0.175,0.056,0.923,-0.124,0.428,-0.662,0.000,0.000,0.264,0.189,2,0,0,0,7,255,0,250,0,0
baseline,6754,6754,0,120037.411,0.122,-0.089,0.041,0.988,3300,116,845,3171,4095,1547,391,1481,38,0.151,25,1,17.531,0.486,-17.100,-1.680,-3.480,-0.156,0.062,0.994,-0.124,0.470,-0.534,0.000,0.000,0.264,0.189,2,0,0,0,7,255,0,250,0,0
baseline,6754,6754,0,120042.411,0.122,-0.089,0.040,0.988,3299,121,862,3163,4095,1549,411,1479,38,0.151,25,1,18.815,0.578,-18.560,-1.120,-2.880,-0.162,0.043,0.976,-0.150,0.558,-0.182,0.000,0.000,0.264,0.189,2,0,0,0,7,255,0,250,0,0
baseline,6754,6754,0,120047.411,0.122,-0.089,0.039,0.988,3273,115,865,3150,4095,1541,416,1477,38,0.151,25,1,17.963,0.524,-17.760,2.120,-1.660,-0.167,0.053,0.944,-0.150,0.502,-0.182,0.000,0.000,0.264,0.189,2,0,0,0,7,255,0,250,0,0
baseline,6767,6767,0,120052.412,0.122,-0.089,0.038,0.988,3271,124,877,3131,4095,1547,444,1483,38,0.151,25,1,17.390,0.502,-17.220,-2.220,0.980,-0.175,0.087,0.979,-0.022,0.502,-0.182,0.000,0.000,0.264,0.189,2,0,0,0,7,255,0,250,0,0
baseline,6767,6767,0,120057.411,0.122,-0.089,0.038,0.988,3260,160,887,3139,4095,1545,463,1493,38,0.151,25,1,20.275,0.256,-19.900,-2.340,3.100,-0.205,0.088,0.986,0.078,0.244,-0.082,0.000,0.000,0.264,0.189,2,0,0,0,7,255,0,250,0,0
baseline,6784,6784,0,120062.411,0.122,-0.089,0.037,0.988,3257,125,904,3133,4095,1550,478,1498,38,0.151,25,1,17.868,0.399,-17.640,-2.840,-0.120,-0.234,0.121,0.962,0.346,0.198,-0.082,0.000,0.000,0.264,0.189,2,0,0,0,7,255,0,250,0,0
baseline,6784,6784,0,120067.411,0.122,-0.089,0.037,0.988,3247,141,922,3127,4095,1549,479,1499,38,0.151,25,1,17.517,0.724,-14.720,-5.020,-8.060,-0.238,0.142,0.963,0.724,-0.016,-0.092,0.000,0.000,0.264,0.189,2,0,0,0,7,255,0,250,0,0
baseline,6784,6784,0,120072.411,0.121,-0.089,0.036,0.988,3243,145,935,3143,4095,1559,497,1496,38,0.151,25,1,22.326,0.726,-17.400,-5.460,-12.880,-0.185,0.113,1.031,0.724,-0.050,-0.092,0.000,0.000,0.264,0.189,2,0,0,0,7,255,0,250,0,0
baseline,6784,6784,0,120077.411,0.121,-0.089,0.035,0.988,3245,140,968,3133,4095,1561,503,1498,38,0.151,25,1,27.751,0.121,-24.180,-3.860,-13.060,-0.185,0.067,1.023,0.110,-0.050,0.334,0.000,0.000,0.264,0.189,2,0,0,0,7,255,0,250,0,0
prep,19,19,0,120082.411,0.121,-0.089,0.033,0.988,3239,142,981,3119,4095,1553,503,1497,38,0.151,25,1,31.272,0.373,-28.260,-2.960,-13.060,-0.195,0.058,1.004,0.110,0.356,0.334,0.000,0.000,0.264,0.189,2,0,0,0,7,255,0,250,0,0
prep,19,19,0,120087.411,0.120,-0.089,0.032,0.988,3244,159,997,3123,4095,1556,542,1503,38,0.151,25,1,30.795,0.357,-28.380,-2.040,-11.780,-0.173,0.067,0.969,0.024,0.356,0.164,0.000,0.000,0.264,0.189,2,0,0,0,7,255,0,250,0,0
prep,19,19,0,120092.413,0.120,-0.089,0.031,0.988,3230,173,1023,3128,4095,1552,541,1511,38,0.151,25,1,27.956,0.286,-25.340,-3.800,-11.180,-0.189,0.084,0.963,0.142,0.248,-0.206,0.000,0.000,0.264,0.189,2,0,0,0,7,255,0,250,0,0
prep,19,19,0,120097.411,0.119,-0.088,0.030,0.988,3230,183,1053,3139,4095,1559,554,1528,38,0.151,25,1,26.334,0.101,-23.500,-2.580,-11.600,-0.168,0.085,1.012,0.024,0.098,-0.206,0.000,0.000,0.264,0.189,2,0,0,0,7,255,0,250,0,0
prep,46,46,0,120102.411,0.119,-0.088,0.029,0.989,3207,176,1073,3126,4095,1565,570,1541,38,0.151,25,1,31.204,0.108,-29.920,0.040,-8.860,-0.160,0.067,1.055,-0.046,0.098,0.214,0.000,0.000,0.264,0.189,2,0,0,0,7,255,0,250,0,0
prep,46,46,0,120107.411,0.119,-0.088,0.027,0.989,3228,191,1115,3131,4095,1577,599,1541,38,0.151,25,1,32.324,0.170,-31.380,4.440,-6.360,-0.183,0.048,0.970,-0.046,0.164,0.214,0.000,0.000,0.264,0.189,2,0,0,0,7,255,0,250,0,0
prep,46,46,0,120112.411,0.119,-0.089,0.026,0.989,3212,207,1127,3108,4095,1573,555,1545,38,0.151,25,1,29.815,0.341,-27.660,7.920,-7.820,-0.198,0.050,0.977,0.084,0.330,-0.104,0.000,0.000,0.264,0.189,2,0,0,0,7,255,0,250,0,0
prep,46,46,0,120117.411,0.118,-0.089,0.024,0.989,3219,214,1160,3112,4095,1575,560,1557,38,0.151,25,1,31.966,0.396,-28.940,7.900,-11.040,-0.206,0.059,0.990,0.218,0.330,-0.104,0.000,0.000,0.264,0.189,2,0,0,0,7,255,0,250,0,0
prep,46,46,0,120122.411,0.118,-0.089,0.023,0.989,3219,227,1183,3115,4095,1563,589,1563,38,0.151,25,1,34.064,0.434,-29.500,1.780,-16.940,-0.224,0.028,0.938,0.282,0.330,-0.104,0.000,0.000,0.264,0.189,2,0,0,0,7,255,0,250,0,0
prep,46,46,0,120127.411,0.117,-0.089,0.022,0.989,3220,247,1200,3121,4095,1571,585,1573,38,0.151,25,1,30.739,0.508,-23.580,1.780,-19.640,-0.173,0.024,0.969,0.282,0.422,-0.224,0.000,0.000,0.264,0.189,2,0,0,0,7,255,0,250,0,0
prep,62,62,0,120132.413,0.116,-0.089,0.020,0.989,3187,245,1214,3115,4095,1568,652,1575,38,0.151,25,1,25.598,0.530,-18.700,3.900,-17.040,-0.171,-0.022,0.919,-0.068,0.526,-0.446,0.000,0.000,0.264,0.189,2,0,0,0,7,255,0,250,0,0
prep,62,62,0,120137.411,0.116,-0.089,0.019,0.989,3193,251,1237,3104,4095,1578,667,1576,38,0.151,25,1,20.608,0.825,-12.740,2.260,-16.040,-0.172,-0.033,0.947,-0.108,0.818,-0.454,0.000,0.000,0.264,0.189,2,0,0,0,7,255,0,250,0,0
prep,62,62,0,120142.411,0.115,-0.089,0.018,0.989,3178,261,1267,3099,4095,1571,635,1597,38,0.151,25,1,15.588,0.834,-11.080,-0.740,-10.940,-0.151,0.003,0.967,-0.164,0.818,-0.454,0.000,0.000,0.264,0.189,2,0,0,0,7,255,0,250,0,0
prep,62,62,0,120147.411,0.115,-0.089,0.017,0.989,3178,252,1273,3095,4095,1573,683,1580,38,0.151,25,1,13.168,0.777,-11.060,-3.180,-6.400,-0.176,-0.022,0.980,-0.164,0.760,-0.274,0.000,0.000,0.264,0.189,2,0,0,0,7,255,0,250,0,0
prep,78,78,0,120152.411,0.115,-0.089,0.016,0.989,3195,254,1291,3081,4095,1576,681,1586,38,0.151,25,1,12.938,0.773,-10.420,-0.380,-7.660,-0.213,-0.081,0.976,-0.142,0.760,-0.114,0.000,0.000,0.264,0.189,2,0,0,0,7,255,0,250,0,0
prep,78,78,0,120157.411,0.114,-0.090,0.015,0.989,3183,266,1319,3089,4095,1567,676,1593,38,0.151,25,1,13.682,1.117,2.540,5.000,-12.480,-0.276,-0.043,0.875,0.078,1.114,-0.114,0.000,0.000,0.264,0.189,2,0,0,0,7,255,0,250,0,0
prep,94,94,0,120162.411,0.113,-0.090,0.016,0.989,3155,261,1320,3068,4095,1571,695,1590,38,0.151,25,1,21.623,1.154,9.060,-3.380,-19.340,-0.196,0.101,0.966,0.302,1.114,-0.154,0.000,0.000,0.264,0.189,2,0,0,0,7,255,0,250,0,0
prep,94,94,0,120167.411,0.112,-0.090,0.016,0.989,3161,263,1337,3087,4095,1567,710,1591,38,0.151,25,1,18.344,0.413,5.320,-4.460,-16.980,-0.163,0.079,1.014,0.302,-0.282,-0.154,0.000,0.000,0.264,0.189,2,0,0,0,7,255,0,250,0,0
prep,110,110,0,120172.411,0.112,-0.090,0.016,0.989,3133,275,1342,3049,4095,1567,715,1593,38,0.151,25,1,11.212,0.313,3.360,-6.520,-8.480,-0.161,0.051,1.007,-0.136,-0.282,0.166,0.000,0.000,0.264,0.189,2,0,0,0,7,255,0,250,0,0
prep,110,110,0,120177.411,0.112,-0.090,0.016,0.990,3127,267,1360,3050,4095,1575,727,1607,38,0.151,25,1,7.719,0.197,-4.280,-4.200,-4.860,-0.172,-0.004,1.063,-0.196,-0.018,0.242,0.000,0.000,0.264,0.189,2,0,0,0,7,255,0,250,0,0
prep,110,110,0,120182.411,0.112,-0.089,0.015,0.990,3123,269,1382,3044,4095,1579,727,1609,38,0.151,25,1,11.885,0.520,-10.740,-4.920,-1.300,-0.204,0.005,1.009,-0.196,0.482,0.222,0.000,0.000,0.264,0.189,2,0,0,0,7,255,0,250,0,0
prep,110,110,0,120187.411,0.112,-0.090,0.014,0.990,3116,265,1402,3037,4095,1576,739,1600,38,0.151,25,1,13.892,0.535,-11.080,-2.220,-8.080,-0.241,-0.001,0.984,0.118,0.522,0.222,0.000,0.000,0.264,0.189,2,0,0,0,7,255,0,250,0,0
prep,110,110,0,120192.411,0.111,-0.090,0.014,0.990,3087,268,1424,3025,4095,1579,715,1605,38,0.151,25,1,15.890,0.610,-5.440,3.940,-14.400,-0.214,0.051,0.962,0.374,0.482,0.040,0.000,0.000,0.264,0.189,2,0,0,0,7,255,0,250,0,0
prep,110,110,0,120197.411,0.110,-0.090,0.014,0.990,3079,269,1446,3015,4095,1563,748,1609,38,0.151,25,1,17.191,0.508,-2.920,0.160,-16.940,-0.166,0.006,0.915,0.374,0.344,-0.194,0.000,0.000,0.264,0.189,2,0,0,0,7,255,0,250,0,0
prep,142,142,0,120202.411,0.110,-0.090,0.013,0.990,3067,266,1477,3027,4095,1561,779,1621,38,0.151,25,1,13.653,0.337,-0.980,-7.600,-11.300,-0.133,0.000,0.976,-0.100,0.322,-0.200,0.000,0.000,0.264,0.189,2,0,0,0,7,255,0,250,0,0
prep,142,142,0,120207.411,0.110,-0.089,0.013,0.990,3059,264,1470,2992,4095,1567,775,1613,38,0.151,25,1,9.716,0.405,-2.260,-6.540,-6.820,-0.170,-0.019,0.992,-0.214,0.344,-0.200,0.000,0.000,0.264,0.189,2,0,0,0,7,255,0,250,0,0
prep,174,174,0,120212.413,0.109,-0.089,0.012,0.990,3013,260,1487,2974,4095,1556,779,1619,38,0.151,25,1,9.518,0.421,-3.040,-6.840,-5.880,-0.199,0.008,0.986,-0.214,0.362,0.006,0.000,0.000,0.264,0.189,2,0,0,0,7,255,0,250,0,0
prep,174,174,0,120217.411,0.109,-0.089,0.012,0.990,3001,250,1503,2971,4095,1563,795,1620,38,0.000,25,1,11.440,0.363,-4.260,-6.520,-8.380,-0.187,0.016,0.989,0.030,0.362,0.006,0.000,0.000,0.264,0.189,2,0,0,0,7,255,0,250,0,0
prep,174,174,0,120222.411,0.109,-0.089,0.012,0.990,2991,256,1501,2979,4095,1559,797,1619,38,0.000,25,0,11.339,0.288,-3.520,-6.080,-8.900,-0.196,0.028,0.978,0.132,0.256,0.006,0.000,0.000,0.264,0.189,3,0,0,0,7,255,0,250,0,0
prep,174,174,0,120227.411,0.108,-0.089,0.012,0.990,2973,252,1515,2951,4095,1555,797,1611,38,0.000,25,0,12.105,0.162,-3.320,-6.700,-9.520,-0.183,0.044,0.988,0.066,0.148,0.012,0.000,0.000,0.264,0.189,3,0,0,0,7,255,0,250,0,0
prep,174,174,0,120232.411,0.108,-0.089,0.012,0.990,2943,251,1528,2957,4095,1542,816,1623,38,0.000,25,0,12.667,0.134,-3.940,-5.780,-10.560,-0.190,0.038,0.982,0.130,0.034,-0.032,0.000,0.000,0.264,0.189,3,0,0,0,7,255,0,250,0,0
prep,174,174,0,120237.411,0.107,-0.088,0.011,0.990,2925,251,1546,2936,4095,1531,826,1617,38,0.000,25,0,14.344,0.134,-4.360,-6.500,-12.020,-0.199,0.029,0.982,0.130,0.034,-0.020,0.000,0.000,0.264,0.189,3,0,0,0,7,255,0,250,0,0
prep,190,190,0,120242.411,0.107,-0.088,0.011,0.990,2901,252,1563,2925,4095,1531,827,1625,38,0.000,25,0,15.532,0.190,-5.400,-6.320,-13.120,-0.189,0.011,0.980,0.130,0.138,-0.032,0.000,0.000,0.264,0.189,3,0,0,0,7,255,0,250,0,0
prep,190,190,0,120247.411,0.106,-0.088,0.011,0.990,2884,252,1575,2917,4095,1528,838,1639,38,0.000,25,0,16.714,0.290,-6.380,-6.700,-13.920,-0.182,0.002,0.971,0.084,0.278,-0.064,0.000,0.000,0.264,0.189,3,0,0,0,7,255,0,250,0,0
prep,190,190,0,120252.411,0.106,-0.087,0.010,0.991,2860,251,1579,2905,4095,1529,815,1627,38,0.000,25,0,16.670,0.344,-6.200,-6.880,-13.860,-0.177,-0.005,0.977,0.016,0.344,-0.118,0.000,0.000,0.264,0.189,3,0,0,0,7,255,0,250,0,0
prep,190,190,0,120257.411,0.105,-0.087,0.010,0.991,2836,251,1591,2902,4095,1540,825,1626,38,0.000,25,0,14.353,0.399,-6.200,-6.760,-11.040,-0.158,-0.027,0.966,-0.048,0.396,-0.164,0.000,0.000,0.264,0.189,3,0,0,0,7,255,0,250,0,0
prep,190,190,0,120262.411,0.105,-0.087,0.009,0.991,2805,229,1605,2874,4095,1527,837,1621,38,0.000,25,0,12.081,0.549,-5.580,-7.060,-8.060,-0.170,-0.023,0.970,-0.126,0.534,-0.200,0.000,0.000,0.264,0.189,3,0,0,0,7,255,0,250,0,0
prep,190,190,0,120267.411,0.104,-0.087,0.009,0.991,2779,223,1613,2860,4095,1532,849,1629,38,0.000,25,0,11.645,0.549,-5.960,-6.820,-7.320,-0.185,-0.020,0.981,-0.126,0.534,-0.200,0.000,0.000,0.264,0.189,3,0,0,0,7,255,0,250,0,0
prep,206,206,0,120272.411,0.104,-0.086,0.008,0.991,2748,221,1628,2857,4095,1545,852,1638,38,0.000,25,0,11.666,0.534,-6.740,-6.940,-6.520,-0.183,-0.024,0.975,0.000,0.534,-0.136,0.000,0.000,0.264,0.189,3,0,0,0,7,255,0,250,0,0
prep,206,206,0,120277.411,0.104,-0.086,0.008,0.991,2739,223,1629,2869,4095,1541,851,1656,38,0.000,25,0,11.635,0.528,-7.120,-7.240,-5.680,-0.180,-0.018,0.973,0.000,0.528,-0.136,0.000,0.000,0.264,0.189,3,0,0,0,7,255,0,250,0,0
prep,206,206,0,120282.411,0.104,-0.086,0.008,0.991,2709,224,1661,2828,4095,1555,855,1656,38,0.000,25,0,11.331,0.480,-6.560,-7.240,-5.740,-0.185,-0.003,0.978,0.000,0.480,-0.136,0.000,0.000,0.264,0.189,3,0,0,0,7,255,0,250,0,0
prep,206,206,0,120287.411,0.103,-0.085,0.007,0.991,2695,231,1657,2813,4095,1559,860,1659,38,0.000,25,0,11.180,0.375,-6.020,-7.180,-6.100,-0.188,-0.006,0.977,0.070,0.368,-0.104,0.000,0.000,0.264,0.189,3,0,0,0,7,255,0,250,0,0
prep,222,222,0,120292.411,0.103,-0.085,0.007,0.991,2653,231,1687,2781,4095,1541,863,1657,38,0.000,25,0,10.986,0.380,-5.400,-7.420,-6.040,-0.191,-0.006,0.982,0.096,0.368,-0.098,0.000,0.000,0.264,0.189,3,0,0,0,7,255,0,250,0,0
prep,222,222,0,120297.411,0.103,-0.085,0.007,0.991,2627,225,1705,2775,4095,1543,864,1673,38,0.000,25,0,11.466,0.390,-5.100,-7.660,-6.840,-0.200,0.003,0.983,0.130,0.368,-0.046,0.000,0.000,0.264,0.189,3,0,0,0,7,255,0,250,0,0
prep,254,254,0,120302.411,0.103,-0.085,0.006,0.991,2573,228,1715,2755,4095,1555,873,1675,38,0.000,25,0,13.062,0.371,-5.100,-7.720,-9.220,-0.199,0.005,0.984,0.232,0.290,-0.018,0.000,0.000,0.264,0.189,3,0,0,0,7,255,0,250,0,0
prep,254,254,0,120307.411,0.102,-0.084,0.006,0.991,2535,229,1719,2729,4095,1561,875,1687,38,0.000,25,0,14.327,0.371,-4.920,-8.340,-10.560,-0.189,-0.011,0.979,0.232,0.290,-0.018,0.000,0.000,0.264,0.189,3,0,0,0,7,255,0,250,0,0
prep,254,254,0,120312.411,0.102,-0.084,0.006,0.991,2491,229,1755,2709,4095,1558,887,1677,38,0.000,25,0,13.832,0.411,-3.880,-9.000,-9.760,-0.183,-0.022,0.977,0.122,0.392,-0.080,0.000,0.000,0.264,0.189,3,0,0,0,7,255,0,250,0,0
prep,254,254,0,120317.411,0.101,-0.084,0.006,0.991,2423,229,1767,2681,4095,1560,895,1692,38,0.000,25,0,12.753,0.411,-2.040,-9.080,-8.720,-0.193,-0.010,0.981,0.122,0.392,-0.080,0.000,0.000,0.264,0.189,3,0,0,0,7,255,0,250,0,0
prep,254,254,0,120322.411,0.101,-0.083,0.006,0.991,2365,221,1773,2658,4095,1557,906,1701,38,0.000,25,0,13.914,0.422,-1.260,-9.380,-10.200,-0.207,0.012,1.000,0.170,0.386,-0.050,0.000,0.000,0.264,0.189,3,0,0,0,7,255,0,250,0,0
prep,254,254,0,120327.411,0.100,-0.083,0.005,0.991,2311,219,1797,2605,4095,1563,917,1708,38,0.000,25,0,14.466,0.268,-2.780,-9.620,-10.440,-0.192,0.017,1.012,0.180,0.198,0.152,0.000,0.000,0.264,0.189,3,0,0,0,7,255,0,250,0,0
prep,270,270,0,120332.411,0.100,-0.083,0.005,0.992,2220,217,1813,2575,4095,1560,924,1707,38,0.000,25,0,17.717,0.346,-6.800,-10.900,-12.200,-0.220,0.034,1.021,0.326,0.116,0.252,0.000,0.000,0.264,0.189,3,0,0,0,7,255,0,250,0,0
prep,270,270,0,120337.411,0.099,-0.082,0.005,0.992,2139,217,1812,2511,4095,1563,928,1703,38,0.000,25,0,22.161,0.447,-10.220,-11.260,-16.120,-0.218,0.011,1.017,0.432,0.116,0.332,0.000,0.000,0.264,0.189,3,0,0,0,7,255,0,250,0,0
prep,270,270,0,120342.411,0.099,-0.082,0.004,0.992,2032,205,1835,2464,4095,1562,947,1707,38,0.000,25,0,25.898,0.477,-12.980,-11.820,-19.040,-0.208,0.000,0.997,0.432,0.202,0.332,0.000,0.000,0.264,0.189,3,0,0,0,7,255,0,250,0,0
prep,270,270,0,120347.411,0.098,-0.081,0.003,0.992,1927,205,1839,2407,4095,1551,971,1707,38,0.000,25,0,28.004,0.445,-12.800,-13.580,-20.880,-0.196,-0.036,0.972,0.348,0.278,0.126,0.000,0.000,0.264,0.189,3,0,0,0,7,255,0,250,0,0
prep,286,286,0,120352.411,0.097,-0.080,0.003,0.992,1832,201,1863,2351,4095,1559,989,1723,38,0.000,25,0,27.802,0.429,-12.540,-15.060,-19.720,-0.187,-0.016,0.997,0.224,0.366,0.086,0.000,0.000,0.264,0.189,3,0,0,0,7,255,0,250,0,0
prep,286,286,0,120357.411,0.096,-0.080,0.002,0.992,1692,191,1875,2283,4095,1554,1009,1719,38,0.000,25,0,27.400,0.503,-11.080,-15.540,-19.660,-0.195,-0.024,0.970,0.224,0.450,-0.138,0.000,0.000,0.264,0.189,3,0,0,0,7,255,0,250,0,0
prep,286,286,0,120362.411,0.095,-0.079,0.002,0.992,1547,243,1895,2197,4095,1557,1045,1704,38,0.000,25,0,29.150,0.452,-9.000,-15.660,-22.880,-0.238,-0.002,0.997,0.266,0.366,0.086,0.000,0.000,0.264,0.189,3,0,0,0,7,255,0,250,0,0
prep,286,286,0,120367.411,0.094,-0.079,0.001,0.992,1363,224,1909,2103,4095,1543,1055,1735,38,0.000,25,0,35.143,0.488,-10.420,-15.480,-29.780,-0.207,0.003,1.026,0.378,0.308,0.164,0.000,0.000,0.264,0.189,3,0,0,0,7,255,0,250,0,0
prep,302,302,0,120372.411,0.093,-0.078,0.000,0.993,1180,225,1927,1977,4095,1543,1075,1737,38,0.000,25,0,37.084,0.488,-13.640,-17.180,-29.900,-0.176,-0.037,1.007,0.378,0.308,0.174,0.000,0.000,0.264,0.189,3,0,0,0,7,255,0,250,0,0
prep,302,302,0,120377.411,0.091,-0.077,-0.000,0.993,1016,205,1931,1837,4095,1527,1073,1726,38,0.000,25,0,35.471,0.499,-11.560,-20.420,-26.600,-0.173,-0.085,0.966,0.058,0.496,0.174,0.000,0.000,0.264,0.189,3,0,0,0,7,255,0,250,0,0
prep,319,319,0,120382.411,0.091,-0.076,-0.000,0.993,868,159,1949,1695,4095,1513,1099,1720,38,0.000,25,0,30.140,0.952,-2.100,-21.100,-21.420,-0.158,-0.110,0.945,0.018,0.952,-0.234,0.000,0.000,0.264,0.189,3,0,0,0,7,255,0,250,0,0
prep,319,319,0,120387.411,0.090,-0.075,-0.000,0.993,697,149,1957,1564,4095,1504,1121,1735,38,0.000,25,0,26.299,0.952,7.300,-20.360,-14.960,-0.215,-0.018,1.000,0.018,0.952,-0.234,0.000,0.000,0.264,0.189,3,0,0,0,7,255,0,250,0,0
prep,319,319,0,120392.412,0.089,-0.074,0.000,0.993,556,147,1989,1370,4095,1501,1111,1740,38,0.000,25,0,31.177,0.645,6.620,-22.860,-20.140,-0.230,0.046,1.058,0.530,0.368,0.158,0.000,0.000,0.264,0.189,3,0,0,0,7,255,0,250,0,0
prep,319,319,0,120397.411,0.088,-0.073,0.000,0.993,378,165,2007,1175,4095,1497,1147,1751,38,0.000,25,0,32.668,0.682,0.940,-22.980,-23.200,-0.223,0.061,1.100,0.642,-0.230,0.740,0.000,0.000,0.264,0.189,3,0,0,0,7,255,0,250,0,0
prep,350,350,0,120402.411,0.087,-0.072,-0.000,0.994,220,121,2011,960,4095,1479,1107,1751,38,0.000,25,0,40.040,0.791,-8.820,-25.480,-29.600,-0.252,0.058,1.123,0.720,-0.328,1.136,0.000,0.000,0.264,0.189,3,0,0,0,7,255,0,250,0,0
prep,350,350,0,120407.411,0.086,-0.071,-0.001,0.994,119,102,2013,763,4095,1459,1133,1765,38,0.000,25,0,41.854,0.721,-16.080,-25.560,-28.980,-0.166,-0.028,1.085,0.642,-0.328,1.136,0.000,0.000,0.264,0.189,3,0,0,0,7,255,0,250,0,0
prep,350,350,0,120412.413,0.085,-0.070,-0.002,0.994,67,94,2021,559,4095,1433,1167,1773,38,0.000,25,0,40.943,0.604,-17.860,-26.340,-25.760,-0.212,-0.027,1.082,0.494,0.348,0.940,0.000,0.000,0.264,0.189,3,0,0,0,7,255,0,250,0,0
prep,350,350,0,120417.411,0.083,-0.069,-0.002,0.994,3,80,2037,405,4095,1417,1181,1791,38,0.000,25,0,44.941,0.604,-19.500,-29.700,-27.520,-0.214,-0.017,1.053,0.494,0.348,0.918,0.000,0.000,0.264,0.189,3,0,0,0,7,255,0,250,0,0
prep,350,350,0,120422.412,0.083,-0.067,-0.003,0.994,0,72,2055,317,4095,1382,1204,1790,38,0.000,25,0,40.304,0.636,-4.560,-35.980,-17.580,-0.187,-0.124,1.002,0.494,0.400,0.666,0.000,0.000,0.264,0.189,3,0,0,0,7,255,0,250,0,0
prep,350,350,0,120427.411,0.082,-0.065,-0.002,0.994,0,45,2041,221,4095,1355,1216,1811,38,0.000,25,0,40.200,1.398,9.920,-38.680,-4.640,-0.223,-0.125,1.079,0.538,1.290,0.666,0.000,0.000,0.264,0.189,3,0,0,0,7,255,0,250,0,0
prep,368,368,0,120432.411,0.082,-0.064,-0.002,0.995,0,29,2066,167,4095,1309,1207,1813,38,0.000,25,0,45.887,1.398,5.880,-42.700,-15.740,-0.332,-0.085,1.181,0.538,1.290,0.928,0.000,0.000,0.264,0.189,3,0,0,0,7,255,0,250,0,0
prep,368,368,0,120437.411,0.082,-0.062,-0.000,0.995,0,28,2067,111,4095,1267,1240,1816,38,0.000,25,0,60.061,2.079,34.200,-49.300,-2.680,-0.454,-0.178,1.378,1.572,1.360,2.044,0.000,0.000,0.264,0.189,3,0,0,0,7,255,0,250,0,0
prep,368,368,0,120442.411,0.082,-0.059,0.001,0.995,0,17,2067,82,4095,1226,1245,1811,38,0.000,25,0,67.189,1.935,19.380,-61.020,20.380,-0.297,0.172,1.477,1.572,1.128,4.094,0.000,0.000,0.264,0.189,3,0,0,0,7,255,0,250,0,0
prep,368,368,0,120447.411,0.083,-0.056,-0.001,0.995,0,5,2077,44,4095,1190,1273,1817,38,0.000,25,0,75.810,1.465,-35.000,-67.240,0.980,-0.260,0.052,1.252,1.440,-0.272,4.094,0.000,0.000,0.264,0.189,3,0,0,0,7,255,0,250,0,0
prep,382,382,0,120452.411,0.083,-0.053,-0.002,0.995,0,0,2075,39,4095,1123,1289,1819,38,0.000,25,0,69.309,1.234,-29.760,-62.540,2.620,-0.224,-0.148,0.922,1.204,-0.272,2.628,0.000,0.000,0.264,0.189,3,0,0,0,7,255,0,250,0,0
prep,382,382,0,120457.411,0.083,-0.050,-0.001,0.995,0,0,2093,29,4095,1062,1291,1832,38,0.000,25,0,75.525,1.888,10.040,-73.220,15.560,-0.210,-0.229,0.814,0.922,1.648,-0.628,0.000,0.000,0.264,0.189,3,0,0,0,7,255,0,250,0,0
prep,382,382,0,120462.411,0.084,-0.047,0.002,0.995,0,0,2078,22,4095,1014,1320,1811,38,0.000,25,0,91.861,2.502,48.740,-74.860,21.420,-0.239,-0.208,0.909,0.922,2.326,-0.770,0.000,0.000,0.264,0.189,3,0,0,0,7,255,0,250,0,0
prep,382,382,0,120467.411,0.085,-0.044,0.004,0.995,0,0,2071,17,4095,951,1333,1804,38,0.000,25,0,99.865,2.566,60.520,-78.100,14.520,-0.290,-0.077,1.084,1.084,2.326,-0.770,0.000,0.000,0.264,0.189,3,0,0,0,7,255,0,250,0,0
prep,401,401,0,120472.411,0.085,-0.041,0.007,0.996,0,0,2060,1,4095,887,1349,1781,38,0.000,25,0,97.972,2.076,52.940,-82.380,3.060,-0.305,-0.011,1.222,1.700,1.192,0.968,0.000,0.000,0.264,0.189,3,0,0,0,7,255,0,250,0,0
prep,401,401,0,120477.411,0.085,-0.037,0.009,0.996,0,0,2039,0,4095,819,1399,1771,38,0.000,25,0,91.613,1.816,36.400,-83.720,-7.680,-0.267,0.031,1.282,1.700,0.640,2.320,0.000,0.000,0.264,0.189,3,0,0,0,7,255,0,250,0,0
prep,414,414,0,120482.411,0.084,-0.033,0.010,0.996,0,0,2044,0,4095,749,1407,1763,38,0.000,25,0,90.141,1.683,11.440,-88.600,-12.020,-0.210,0.062,1.276,1.668,0.224,2.774,0.000,0.000,0.264,0.189,3,0,0,0,7,255,0,250,0,0
prep,414,414,0,120487.411,0.084,-0.029,0.010,0.996,0,0,2025,0,4095,676,1415,1735,38,0.000,25,0,89.263,1.282,-3.880,-88.780,-8.420,-0.159,0.072,1.226,1.274,-0.142,2.774,0.000,0.000,0.264,0.189,3,0,0,0,7,255,0,250,0,0
prep,414,414,0,120492.411,0.084,-0.025,0.010,0.996,0,0,2026,0,4095,588,1415,1717,38,0.000,25,0,92.797,0.961,-5.580,-92.620,-1.280,-0.143,0.067,1.138,0.914,-0.298,2.246,0.000,0.000,0.264,0.189,3,0,0,0,7,255,0,250,0,0
prep,414,414,0,120497.411,0.084,-0.021,0.010,0.996,0,0,2019,0,4095,505,1421,1692,38,0.000,25,0,93.882,0.968,-2.540,-93.840,1.220,-0.150,0.083,1.065,0.914,-0.318,1.370,0.000,0.000,0.264,0.189,3,0,0,0,7,255,0,250,0,0
prep,447,447,0,120502.412,0.084,-0.017,0.011,0.996,0,0,1996,0,4095,413,1427,1683,38,0.000,25,0,96.326,1.152,11.140,-95.680,-0.180,-0.176,0.079,1.007,1.102,-0.334,0.654,0.000,0.000,0.264,0.189,3,0,0,0,7,255,0,250,0,0
prep,447,447,0,120507.411,0.083,-0.013,0.012,0.996,0,0,1971,0,4095,342,1431,1657,38,0.000,25,0,103.913,1.504,25.060,-100.440,-9.040,-0.171,0.127,1.041,1.442,-0.426,0.402,0.000,0.000,0.264,0.189,3,0,0,0,7,255,0,250,0,0
prep,447,447,0,120512.411,0.082,-0.008,0.014,0.996,0,0,1973,0,4095,295,1449,1628,38,0.000,25,0,111.512,1.727,29.760,-105.200,-21.960,-0.172,0.151,1.127,1.548,-0.766,0.402,0.000,0.000,0.264,0.189,3,0,0,0,7,255,0,250,0,0
prep,447,447,0,120517.411,0.081,-0.004,0.015,0.997,0,0,1940,0,4095,231,1457,1606,38,0.000,25,0,112.924,1.784,23.040,-107.160,-27.160,-0.111,0.141,1.220,1.548,-0.886,1.248,0.000,0.000,0.264,0.189,3,0,0,0,7,255,0,250,0,0
prep,478,478,0,120522.411,0.080,0.000,0.016,0.997,0,0,1929,0,1451,145,1459,1574,38,0.000,25,0,101.669,1.499,9.860,-97.940,-25.440,-0.026,0.145,1.301,1.164,-0.944,2.142,0.000,0.000,0.264,0.189,3,0,0,0,7,255,0,250,0,0
prep,478,478,0,120527.411,0.079,0.005,0.016,0.997,0,0,1909,0,1780,105,1459,1518,38,0.000,25,0,101.509,1.326,-10.160,-100.260,-12.200,-0.083,0.061,1.371,0.986,-0.886,2.934,0.000,0.000,0.264,0.189,3,0,0,0,7,255,0,250,0,0
prep,478,478,0,120532.411,0.079,0.009,0.016,0.997,0,0,1879,0,2029,73,1465,1462,38,0.000,25,0,103.244,0.991,-10.540,-102.700,0.980,-0.170,0.035,1.355,0.986,-0.098,3.396,0.000,0.000,0.264,0.189,3,0,0,0,7,255,0,250,0,0
prep,478,478,0,120537.411,0.080,0.014,0.016,0.997,0,0,1840,0,4095,57,1483,1405,38,0.000,25,0,103.041,1.935,-9.180,-102.460,5.920,-0.250,-0.021,1.404,1.912,0.296,3.584,0.000,0.000,0.264,0.189,3,0,0,0,7,255,0,250,0,0
prep,478,478,0,120542.411,0.080,0.018,0.016,0.997,0,0,1821,0,1459,41,1477,1343,38,0.000,25,0,92.940,2.878,-10.280,-91.600,11.900,-0.294,-0.006,1.494,2.724,0.928,3.816,0.000,0.000,0.264,0.189,3,0,0,0,7,255,0,250,0,0
prep,478,478,0,120547.411,0.081,0.022,0.015,0.996,0,0,1781,0,4095,30,1475,1267,38,0.000,25,0,96.779,3.451,-23.840,-92.820,13.500,-0.350,0.071,1.559,3.324,0.928,4.652,0.000,0.000,0.264,0.189,3,0,0,0,7,255,0,250,0,0
prep,478,478,0,120552.411,0.081,0.026,0.014,0.996,0,0,1756,0,2024,24,1489,1204,38,0.000,25,0,100.079,4.149,-30.560,-94.040,15.440,-0.377,0.169,1.699,4.140,0.278,5.248,0.000,0.000,0.264,0.189,3,0,0,0,7,255,0,250,0,0
prep,478,478,0,120557.411,0.082,0.030,0.013,0.996,0,0,1699,0,1881,27,1478,1119,38,0.000,25,0,87.148,4.801,-29.080,-79.440,20.940,-0.413,0.250,1.734,4.762,-0.610,6.574,0.000,0.000,0.264,0.189,3,0,0,0,7,255,0,250,0,0
prep,494,494,0,120562.411,0.083,0.033,0.012,0.996,0,0,1655,0,1421,17,1471,1039,38,0.000,25,0,74.742,5.503,-19.440,-68.400,23.020,-0.489,0.242,1.775,5.384,-1.140,6.866,0.000,0.000,0.264,0.189,3,0,0,0,7,255,0,250,0,0
prep,494,494,0,120567.411,0.084,0.036,0.011,0.996,0,0,1603,0,1355,19,1467,929,38,0.000,25,0,88.067,6.385,-38.180,-74.980,26.000,-0.546,0.285,1.772,6.240,-1.352,7.056,0.000,0.000,0.264,0.189,3,0,0,0,7,255,0,250,0,0
prep,494,494,0,120572.411,0.085,0.041,0.008,0.996,0,0,1539,0,1367,19,1453,800,38,0.000,25,0,126.026,7.137,-63.940,-106.660,20.440,-0.598,0.420,1.782,6.980,-1.490,7.056,0.000,0.000,0.264,0.189,3,0,0,0,7,255,0,250,0,0
prep,494,494,0,120577.411,0.086,0.048,0.006,0.995,0,0,1461,0,1513,13,1435,687,38,0.000,25,0,167.092,8.355,-74.440,-148.180,20.520,-0.605,0.582,1.768,7.880,-2.776,7.032,0.000,0.000,0.264,0.189,3,0,0,0,7,255,0,250,0,0
prep,510,510,0,120582.411,0.086,0.056,0.002,0.995,0,0,1371,0,1240,13,1427,604,38,0.000,25,0,207.799,9.521,-96.540,-182.900,20.200,-0.580,0.782,1.755,8.448,-4.392,6.752,0.000,0.000,0.264,0.189,3,0,0,0,7,255,0,250,0,0
prep,510,510,0,120587.411,0.086,0.065,-0.003,0.994,0,0,1290,0,1135,17,1400,535,38,0.000,25,0,241.338,10.632,-119.960,-209.380,3.720,-0.557,0.722,1.718,8.752,-6.036,6.448,0.000,0.000,0.264,0.189,3,0,0,0,7,255,0,250,0,0
prep,526,526,0,120592.411,0.085,0.076,-0.007,0.993,0,0,1196,0,1055,18,1363,456,38,0.000,25,0,270.916,10.632,-128.460,-238.260,-11.220,-0.520,0.419,1.602,8.752,-6.036,5.912,0.000,0.000,0.264,0.189,3,0,0,0,7,255,0,250,0,0
prep,526,526,0,120597.411,0.085,0.088,-0.011,0.992,0,0,1105,0,955,20,1319,413,38,0.000,25,0,286.543,8.709,-107.340,-265.420,-11.720,-0.449,0.189,1.603,8.062,-3.294,4.722,0.000,0.000,0.264,0.189,3,0,0,0,7,255,0,250,0,0
prep,558,558,0,120602.411,0.084,0.101,-0.014,0.991,0,0,996,0,885,23,1268,376,38,0.000,25,0,296.395,7.787,-90.060,-282.380,-0.720,-0.439,0.138,1.661,7.682,-1.274,4.722,0.000,0.000,0.264,0.189,3,0,0,0,7,255,0,250,0,0
prep,558,558,0,120607.411,0.085,0.113,-0.016,0.990,0,0,901,0,747,17,1206,344,38,0.000,25,0,300.849,7.787,-81.020,-289.100,19.160,-0.571,0.287,1.814,7.682,-1.274,5.120,0.000,0.000,0.264,0.189,3,0,0,0,7,255,0,250,0,0
prep,558,558,0,120612.413,0.086,0.126,-0.020,0.988,0,0,807,0,648,19,1141,309,38,0.000,25,0,311.661,10.131,-96.540,-294.540,32.540,-0.721,0.336,1.925,9.902,-2.140,5.990,0.000,0.000,0.264,0.189,3,0,0,0,7,255,0,250,0,0
prep,558,558,0,120617.411,0.087,0.140,-0.024,0.986,0,0,775,0,541,20,1069,256,38,0.000,25,0,324.164,12.270,-124.720,-298.620,18.800,-0.827,0.189,1.914,12.082,-2.140,5.990,0.000,0.000,0.264,0.189,3,0,0,0,7,255,0,250,0,0
prep,558,558,0,120622.411,0.086,0.154,-0.030,0.984,0,0,740,0,595,23,973,247,38,0.000,25,0,349.168,12.461,-158.480,-310.640,-17.460,-0.754,0.005,1.813,12.426,-0.930,5.714,0.000,0.000,0.264,0.189,3,0,0,0,7,255,0,250,0,0
prep,558,558,0,120627.411,0.083,0.167,-0.035,0.982,0,0,636,0,408,24,894,229,38,0.000,25,0,346.386,12.440,-163.860,-300.260,-54.560,-0.559,-0.265,1.531,12.426,0.590,4.750,0.000,0.000,0.264,0.189,3,0,0,0,7,255,0,250,0,0
prep,574,574,0,120632.411,0.079,0.181,-0.039,0.979,0,0,569,0,409,21,795,209,38,0.000,25,0,352.661,9.923,-133.880,-318.280,-71.720,-0.324,-0.224,1.389,9.726,1.968,2.714,0.000,0.000,0.264,0.189,3,0,0,0,7,255,0,250,0,0
prep,574,574,0,120637.411,0.076,0.196,-0.041,0.977,0,0,476,0,275,18,709,187,38,0.000,25,0,350.713,8.859,-74.560,-336.640,-64.140,-0.307,0.001,1.545,8.638,1.968,2.714,0.000,0.000,0.264,0.189,3,0,0,0,7,255,0,250,0,0
prep,574,574,0,120642.411,0.075,0.211,-0.041,0.974,0,0,436,0,3826,25,611,167,38,0.000,25,0,346.108,8.645,-44.720,-339.940,-47.240,-0.293,0.201,1.951,8.638,-0.350,2.880,0.000,0.000,0.264,0.189,3,0,0,0,7,255,0,250,0,0
prep,574,574,0,120647.411,0.073,0.225,-0.042,0.971,0,0,420,0,3759,16,505,167,38,0.000,25,0,343.551,11.113,-57.520,-336.400,-39.420,-0.327,0.215,2.182,10.824,-2.518,6.022,0.000,0.000,0.264,0.189,3,0,0,0,7,255,0,250,0,0
prep,590,590,0,120652.411,0.072,0.241,-0.045,0.967,0,0,351,0,3657,21,404,155,38,0.000,25,0,367.000,12.918,-109.600,-349.160,-27.640,-0.352,0.279,2.114,12.624,-2.740,6.348,0.000,0.000,0.264,0.189,3,0,0,0,7,255,0,250,0,0
prep,590,590,0,120657.411,0.070,0.257,-0.051,0.963,0,0,320,0,3619,18,304,145,38,0.000,25,0,411.730,13.552,-165.200,-376.200,-26.540,-0.385,0.387,1.949,13.124,-3.378,6.348,0.000,0.000,0.264,0.189,3,0,0,0,7,255,0,250,0,0
prep,590,590,0,120662.411,0.068,0.275,-0.058,0.957,0,0,315,0,3609,17,224,112,38,0.000,25,0,453.186,13.756,-200.900,-406.220,-1.400,-0.525,0.336,1.747,13.230,-3.766,4.144,0.000,0.000,0.264,0.189,3,0,0,0,7,255,0,250,0,0
prep,590,590,0,120667.411,0.068,0.293,-0.067,0.951,0,0,281,0,3593,16,69,109,38,0.000,25,0,494.061,14.262,-231.360,-434.740,39.620,-0.679,0.315,1.598,13.756,-3.766,1.282,0.000,0.000,0.264,0.189,3,0,0,0,7,255,0,250,0,0
prep,606,606,0,120672.411,0.069,0.312,-0.076,0.944,0,0,251,0,3556,9,37,115,38,0.000,25,0,515.517,15.045,-235.320,-454.260,63.480,-0.710,0.425,1.526,14.566,-3.766,-1.332,0.000,0.000,0.264,0.189,3,0,0,0,7,255,0,250,0,0
prep,606,606,0,120677.411,0.070,0.331,-0.085,0.937,0,0,181,0,3504,7,6,114,38,0.000,25,0,501.998,15.445,-217.260,-449.800,49.800,-0.680,0.620,1.501,14.800,-4.418,-2.956,0.000,0.000,0.264,0.189,4,0,0,0,7,255,0,250,0,0
prep,606,606,0,120682.411,0.071,0.349,-0.092,0.930,0,0,101,0,3449,0,0,109,38,0.000,25,0,471.306,16.148,-202.600,-422.400,51.580,-0.672,0.739,1.483,14.826,-6.398,-4.050,0.000,0.000,0.264,0.189,4,0,0,0,7,255,0,250,0,0
prep,606,606,0,120687.411,0.071,0.364,-0.100,0.923,0,0,75,0,3407,0,0,111,38,0.000,25,0,422.900,16.661,-200.900,-369.420,44.860,-0.670,0.868,1.410,14.826,-7.602,-5.072,0.000,0.000,0.264,0.189,4,0,0,0,7,255,0,250,0,0
prep,622,622,0,120692.411,0.070,0.378,-0.109,0.917,0,0,31,0,3340,0,0,105,38,0.000,25,0,395.623,17.079,-223.000,-325.420,29.840,-0.605,1.169,1.221,14.634,-8.806,-6.498,0.000,0.000,0.264,0.189,4,0,0,0,7,255,0,250,0,0
prep,622,622,0,120697.411,0.066,0.390,-0.123,0.910,0,0,23,0,3352,0,0,98,38,0.000,25,0,457.742,17.462,-365.140,-275.240,21.060,-0.509,1.331,0.778,13.040,-11.614,-8.680,0.000,0.000,0.264,0.189,4,0,0,0,7,255,0,250,0,0
prep,655,655,0,120702.411,0.060,0.400,-0.144,0.903,0,0,20,2,3247,0,0,91,38,0.000,25,0,586.837,15.193,-540.320,-224.760,43.760,-0.245,1.308,0.261,9.108,-12.160,-11.986,0.000,0.000,0.264,0.189,4,0,0,0,7,255,0,250,0,0
prep,655,655,0,120707.411,0.047,0.409,-0.173,0.895,0,0,6,4,3324,0,0,92,38,0.000,25,0,680.006,12.578,-655.360,-179.180,-28.380,0.222,1.059,-0.475,3.216,-12.160,-13.972,0.000,0.000,0.264,0.189,4,0,0,0,7,255,0,250,0,0
prep,670,670,0,120712.411,0.026,0.417,-0.203,0.886,0,0,1,0,3319,0,0,86,38,0.000,25,0,687.504,10.534,-655.360,-122.040,-168.140,0.326,-0.098,-1.600,-5.722,-8.844,-14.732,0.000,0.000,0.264,0.189,4,0,0,0,7,255,0,250,0,0
prep,670,670,0,120717.411,0.011,0.424,-0.221,0.878,0,0,0,0,3300,0,0,83,38,0.000,25,0,596.616,14.946,-556.620,-149.140,-154.540,0.125,-0.842,-3.227,-13.844,5.632,-15.960,0.000,0.000,0.264,0.189,4,0,0,0,7,255,0,250,0,0
prep,670,670,0,120722.411,0.008,0.430,-0.226,0.874,0,0,0,0,3253,0,0,83,38,0.000,25,0,214.622,18.269,-146.220,-149.760,-47.480,0.154,-0.752,-1.447,-13.844,11.920,-15.960,0.000,0.000,0.264,0.189,4,0,0,0,7,255,0,250,0,0
prep,670,670,0,120727.411,0.012,0.432,-0.224,0.873,0,0,0,0,3271,0,0,82,38,0.000,25,0,120.615,15.843,78.400,-69.500,59.760,0.078,-0.219,-1.068,-10.436,11.920,-13.814,0.000,0.000,0.264,0.189,4,0,0,0,7,255,0,250,0,0
prep,670,670,0,120732.411,0.021,0.431,-0.218,0.876,0,0,0,0,3239,0,0,77,38,0.000,25,0,243.493,10.077,212.120,14.620,118.660,-0.161,0.109,-0.541,-8.198,5.860,-13.814,0.000,0.000,0.264,0.189,0,0,0,0,7,255,0,250,0,0
prep,670,670,0,120737.411,0.031,0.426,-0.209,0.880,0,0,0,0,3239,0,0,77,38,0.000,25,0,351.774,3.641,313.560,74.000,141.240,-0.512,0.422,0.133,-3.360,1.402,-14.244,0.000,0.000,0.264,0.189,0,0,0,0,7,255,0,250,0,0
prep,670,670,0,120742.411,0.038,0.420,-0.200,0.884,0,0,0,0,3224,0,0,75,38,0.000,25,0,293.988,4.608,260.340,116.300,71.600,-0.938,0.525,0.916,3.508,-2.988,-14.244,0.000,0.000,0.264,0.189,0,0,0,0,7,255,0,250,0,0
prep,670,670,0,120747.411,0.039,0.414,-0.195,0.889,0,0,5,0,3254,0,0,76,38,0.000,25,0,231.105,13.207,160.420,166.340,2.440,-1.048,0.645,1.313,12.034,-5.442,-13.592,0.000,0.000,0.264,0.189,0,0,0,0,7,255,0,250,0,0
prep,686,686,0,120752.411,0.037,0.406,-0.191,0.893,0,0,11,0,3288,0,0,77,38,0.000,25,0,231.097,15.598,77.660,213.400,-42.840,-0.926,0.883,1.181,13.676,-7.500,-12.782,0.000,0.000,0.264,0.189,0,0,0,0,7,255,0,250,0,0
prep,686,686,0,120757.411,0.031,0.398,-0.189,0.897,0,0,21,0,3368,0,0,78,38,0.000,25,0,243.295,16.250,13.760,220.600,-101.680,-0.609,0.836,0.790,13.676,-8.776,-12.434,0.000,0.000,0.264,0.189,0,0,0,0,7,255,0,250,0,0
prep,686,686,0,120762.411,0.025,0.390,-0.187,0.901,0,0,13,0,3375,0,0,74,38,0.000,25,0,258.634,12.393,6.140,231.100,-115.960,-0.396,0.496,0.479,8.750,-8.776,-12.434,0.000,0.000,0.264,0.189,0,0,0,0,7,255,0,250,0,0
prep,686,686,0,120767.411,0.019,0.382,-0.184,0.906,0,0,16,0,3383,0,0,72,38,0.000,25,0,256.450,7.530,30.240,230.980,-107.240,-0.223,0.254,0.318,5.406,-5.242,-11.420,0.000,0.000,0.264,0.189,0,0,0,0,7,255,0,250,0,0
prep,702,702,0,120772.411,0.015,0.373,-0.181,0.910,0,0,9,0,3381,0,0,70,38,0.000,25,0,247.989,4.419,52.020,224.200,-92.340,-0.128,0.050,0.285,3.332,-2.902,-10.262,0.000,0.000,0.264,0.189,0,0,0,0,7,255,0,250,0,0
prep,702,702,0,120777.411,0.011,0.366,-0.177,0.914,0,0,13,0,3379,0,0,69,38,0.000,25,0,228.712,3.067,60.640,210.600,-65.420,-0.074,0.056,0.353,2.686,-1.480,-9.062,0.000,0.000,0.264,0.189,0,0,0,0,7,255,0,250,0,0
prep,718,718,0,120782.411,0.009,0.358,-0.174,0.917,0,0,15,0,3369,0,0,71,38,0.000,25,0,214.358,3.067,62.840,201.620,-36.740,-0.059,0.179,0.469,2.686,-1.480,-8.228,0.000,0.000,0.264,0.189,0,0,0,0,7,255,0,250,0,0
prep,718,718,0,120787.411,0.008,0.350,-0.172,0.921,0,0,12,0,3391,0,0,67,38,0.000,25,0,212.864,4.359,58.380,204.300,-12.820,-0.124,0.326,0.596,3.162,-3.000,-7.708,0.000,0.000,0.264,0.189,0,0,0,0,7,255,0,250,0,0
prep,718,718,0,120792.411,0.007,0.341,-0.170,0.924,0,0,13,0,3377,0,0,71,38,0.000,25,0,217.992,6.303,49.160,212.360,-2.680,-0.232,0.404,0.678,4.246,-4.658,-7.708,0.000,0.000,0.264,0.189,0,0,0,0,7,255,0,250,0,0
prep,718,718,0,120797.411,0.005,0.332,-0.168,0.928,0,0,10,0,3386,0,0,61,38,0.000,25,0,223.830,7.563,38.300,220.240,-11.280,-0.352,0.416,0.611,5.426,-5.268,-7.916,0.000,0.000,0.264,0.189,0,0,0,0,7,255,0,250,0,0
prep,750,750,0,120802.411,0.003,0.324,-0.166,0.931,0,0,13,0,3387,0,0,69,38,0.000,25,0,224.825,7.826,47.320,216.820,-36.000,-0.407,0.363,0.527,5.788,-5.268,-9.024,0.000,0.000,0.264,0.189,0,0,0,0,7,255,0,250,0,0
prep,750,750,0,120807.411,-0.001,0.315,-0.163,0.935,0,0,8,0,3373,0,0,61,38,0.000,25,0,248.540,7.363,49.640,235.980,-60.180,-0.286,0.256,0.687,5.842,-4.482,-9.024,0.000,0.000,0.264,0.189,0,0,0,0,7,255,0,250,0,0
prep,750,750,0,120812.412,-0.005,0.305,-0.160,0.939,0,0,7,0,3367,0,0,59,38,0.000,25,0,269.245,7.126,47.140,255.340,-71.220,-0.178,0.191,0.589,5.788,-4.156,-7.298,0.000,0.000,0.264,0.189,0,0,0,0,7,255,0,250,0,0
prep,750,750,0,120817.411,-0.009,0.294,-0.157,0.943,0,0,19,0,3373,0,0,62,38,0.000,25,0,283.451,5.736,52.820,269.320,-70.860,-0.114,0.216,0.584,4.418,-3.658,-7.064,0.000,0.000,0.264,0.189,0,0,0,0,7,255,0,250,0,0
prep,750,750,0,120822.411,-0.013,0.283,-0.153,0.947,0,0,18,0,3359,0,0,68,38,0.000,25,0,295.686,5.242,67.780,279.800,-67.440,-0.107,0.275,0.591,3.754,-3.658,-6.696,0.000,0.000,0.264,0.189,0,0,0,0,7,255,0,250,0,0
prep,750,750,0,120827.411,-0.016,0.272,-0.149,0.951,0,0,20,0,3383,0,0,59,38,0.000,25,0,302.144,5.656,85.720,282.500,-64.320,-0.120,0.315,0.650,3.754,-4.230,-6.652,0.000,0.000,0.264,0.189,0,0,0,0,7,255,0,250,0,0
prep,766,766,0,120832.411,-0.020,0.261,-0.144,0.954,0,0,21,0,3357,0,0,57,38,0.000,25,0,303.018,6.103,97.800,279.380,-64.820,-0.139,0.331,0.714,3.824,-4.756,-6.226,0.000,0.000,0.264,0.189,0,0,0,0,7,255,0,250,0,0
prep,766,766,0,120837.411,-0.023,0.250,-0.138,0.958,0,0,16,0,3385,0,0,59,38,0.000,25,0,299.441,6.440,102.260,272.980,-68.480,-0.138,0.297,0.787,4.160,-4.916,-5.702,0.000,0.000,0.264,0.189,0,0,0,0,7,255,0,250,0,0
prep,766,766,0,120842.412,-0.027,0.239,-0.133,0.961,0,0,18,0,3369,0,0,59,38,0.000,25,0,296.703,6.603,100.560,269.920,-71.160,-0.129,0.244,0.824,4.408,-4.916,-4.866,0.000,0.000,0.264,0.189,0,0,0,0,7,255,0,250,0,0
prep,766,766,0,120847.411,-0.030,0.229,-0.128,0.965,0,0,31,0,3378,0,0,60,38,0.000,25,0,293.297,6.286,99.460,266.680,-70.800,-0.112,0.228,0.864,4.408,-4.482,-4.228,0.000,0.000,0.264,0.189,0,0,0,0,7,255,0,250,0,0
prep,782,782,0,120852.411,-0.034,0.218,-0.122,0.968,0,0,21,0,3339,0,0,57,38,0.000,25,0,293.987,6.219,99.020,268.220,-68.420,-0.097,0.244,0.912,4.312,-4.482,-3.626,0.000,0.000,0.264,0.189,0,0,0,0,7,255,0,250,0,0
prep,782,782,0,120857.411,-0.037,0.207,-0.117,0.971,0,0,24,0,3349,0,0,55,38,0.000,25,0,298.682,6.231,99.520,274.380,-63.420,-0.073,0.279,0.976,4.190,-4.612,-3.032,0.000,0.000,0.264,0.189,0,0,0,0,7,255,0,250,0,0
prep,800,800,0,120862.411,-0.040,0.195,-0.112,0.973,0,0,23,0,3345,0,0,56,38,0.000,25,0,305.760,6.438,100.920,282.680,-58.280,-0.058,0.299,1.027,4.004,-5.042,-2.308,0.000,0.000,0.264,0.189,0,0,0,0,7,255,0,250,0,0
prep,800,800,0,120867.411,-0.043,0.184,-0.107,0.976,0,0,28,0,3347,0,0,55,38,0.000,25,0,308.555,6.520,101.220,286.340,-54.500,-0.049,0.314,1.038,3.830,-5.276,-1.684,0.000,0.000,0.264,0.189,0,0,0,0,7,255,0,250,0,0
prep,800,800,0,120872.411,-0.046,0.172,-0.101,0.979,0,0,25,0,3327,0,0,56,38,0.000,25,0,305.658,6.426,102.820,282.860,-53.340,-0.038,0.339,1.054,3.550,-5.356,-1.432,0.000,0.000,0.264,0.189,0,0,0,0,7,255,0,250,0,0
prep,800,800,0,120877.411,-0.049,0.161,-0.096,0.981,0,0,23,0,3352,0,0,57,38,0.000,25,0,305.207,6.413,107.440,280.540,-53.900,-0.032,0.363,1.095,3.250,-5.528,-1.146,0.000,0.000,0.264,0.189,0,0,0,0,7,255,0,250,0,0
prep,814,814,0,120882.411,-0.052,0.149,-0.090,0.983,0,0,21,0,3335,0,0,56,38,0.000,25,0,308.976,6.505,116.000,280.960,-55.420,-0.030,0.380,1.144,3.060,-5.740,-0.648,0.000,0.000,0.264,0.189,0,0,0,0,7,255,0,250,0,0
prep,814,814,0,120887.411,-0.054,0.137,-0.083,0.986,0,0,24,0,3339,0,0,53,38,0.000,25,0,313.819,6.537,126.680,281.100,-58.460,-0.038,0.378,1.203,2.922,-5.848,-0.080,0.000,0.000,0.264,0.189,0,0,0,0,7,255,0,250,0,0
prep,833,833,0,120892.411,-0.057,0.126,-0.076,0.987,0,0,13,0,3327,0,0,53,38,0.000,25,0,320.645,6.527,137.960,282.500,-63.040,-0.042,0.369,1.270,2.898,-5.848,0.604,0.000,0.000,0.264,0.189,0,0,0,0,7,255,0,250,0,0
prep,833,833,0,120897.411,-0.061,0.114,-0.069,0.989,0,0,16,0,3348,0,0,53,38,0.000,25,0,326.715,6.457,147.680,283.480,-67.620,-0.040,0.384,1.335,2.842,-5.798,1.394,0.000,0.000,0.264,0.189,0,0,0,0,7,255,0,250,0,0
prep,848,848,0,120902.411,-0.064,0.103,-0.061,0.991,0,0,10,0,3336,0,0,51,38,0.000,25,0,329.046,6.381,153.040,282.740,-70.060,-0.010,0.397,1.436,2.664,-5.798,2.156,0.000,0.000,0.264,0.189,0,0,0,0,7,255,0,250,0,0
prep,848,848,0,120907.411,-0.067,0.091,-0.053,0.992,0,0,11,0,3358,0,0,50,38,0.000,25,0,327.293,6.263,152.920,281.020,-69.020,-0.011,0.423,1.504,2.268,-5.838,3.316,0.000,0.000,0.264,0.189,0,0,0,0,7,255,0,250,0,0
prep,864,864,0,120912.411,-0.070,0.080,-0.046,0.993,0,0,8,0,3353,0,0,54,38,0.000,25,0,325.067,6.267,151.160,279.200,-69.760,-0.017,0.436,1.572,2.038,-5.926,4.092,0.000,0.000,0.264,0.189,0,0,0,0,7,255,0,250,0,0
prep,864,864,0,120917.411,-0.073,0.068,-0.038,0.994,0,0,9,0,3372,0,0,51,38,0.000,25,0,322.372,6.204,147.240,277.860,-70.980,-0.026,0.444,1.589,1.838,-5.926,4.870,0.000,0.000,0.264,0.189,0,0,0,0,7,255,0,250,0,0
prep,864,864,0,120922.411,-0.076,0.057,-0.031,0.995,0,0,11,0,3356,0,0,54,38,0.000,25,0,317.510,6.001,146.020,271.760,-75.080,-0.046,0.464,1.596,1.584,-5.788,5.150,0.000,0.000,0.264,0.189,0,0,0,0,7,255,0,250,0,0
prep,864,864,0,120927.411,-0.080,0.046,-0.023,0.995,0,0,11,0,3379,0,0,53,38,0.000,25,0,313.690,5.955,147.060,264.240,-83.380,-0.066,0.489,1.602,1.400,-5.788,5.308,0.000,0.000,0.264,0.189,0,0,0,0,7,255,0,250,0,0
prep,864,864,0,120932.411,-0.084,0.036,-0.016,0.996,0,0,16,0,3365,0,0,45,38,0.000,25,0,312.993,5.902,150.120,257.660,-95.080,-0.060,0.492,1.611,1.212,-5.776,5.462,0.000,0.000,0.264,0.189,0,0,0,0,7,255,0,250,0,0
prep,864,864,0,120937.411,-0.089,0.025,-0.008,0.996,0,0,17,0,3355,0,0,44,38,0.000,25,0,319.329,5.623,157.740,257.160,-104.680,-0.001,0.468,1.657,0.810,-5.564,5.676,0.000,0.000,0.264,0.189,0,0,0,0,7,255,0,250,0,0
prep,864,864,0,120942.411,-0.093,0.015,0.001,0.996,0,0,9,0,3350,0,0,44,38,0.000,25,0,326.938,4.972,166.460,261.000,-105.160,0.050,0.462,1.675,-0.042,-4.972,6.278,0.000,0.000,0.264,0.189,0,0,0,0,7,255,0,250,0,0
prep,864,864,0,120947.411,-0.098,0.004,0.009,0.995,0,0,10,0,3351,0,0,46,38,0.000,25,0,330.210,4.604,177.340,257.960,-105.100,0.067,0.487,1.756,-0.874,-4.520,6.562,0.000,0.000,0.264,0.189,0,0,0,0,7,255,0,250,0,0
prep,879,879,0,120952.411,-0.102,-0.006,0.019,0.995,0,0,9,0,3327,0,0,47,38,0.000,25,0,333.925,4.622,186.000,255.340,-108.220,0.074,0.515,1.865,-1.434,-4.394,7.426,0.000,0.000,0.264,0.189,0,0,0,0,7,255,0,250,0,0
prep,879,879,0,120957.411,-0.107,-0.016,0.028,0.994,0,0,17,0,3324,0,0,44,38,0.000,25,0,334.594,4.660,188.020,250.880,-116.880,0.075,0.550,1.969,-1.916,-4.248,8.562,0.000,0.000,0.264,0.189,0,0,0,0,7,255,0,250,0,0
prep,895,895,0,120962.411,-0.113,-0.026,0.037,0.993,0,0,13,0,3299,0,0,47,38,0.000,25,0,335.083,4.785,185.460,247.340,-129.260,0.119,0.564,2.048,-2.406,-4.136,9.642,0.000,0.000,0.264,0.189,0,0,0,0,7,255,0,250,0,0
prep,895,895,0,120967.411,-0.119,-0.036,0.046,0.991,0,0,18,0,3323,0,0,45,38,0.000,25,0,332.713,4.946,174.220,246.420,-140.080,0.235,0.556,2.098,-3.280,-3.702,10.430,0.000,0.000,0.264,0.189,0,0,0,0,7,255,0,250,0,0
prep,895,895,0,120972.411,-0.125,-0.046,0.054,0.990,0,0,11,0,3301,0,0,43,38,0.000,25,0,327.248,5.616,159.140,246.480,-144.960,0.373,0.533,1.985,-4.814,-2.892,10.430,0.000,0.000,0.264,0.189,0,0,0,0,7,255,0,250,0,0
prep,895,895,0,120977.411,-0.131,-0.056,0.061,0.988,0,0,16,0,3307,0,0,40,38,0.000,25,0,321.648,6.707,151.580,241.240,-149.280,0.492,0.507,1.877,-6.392,-2.032,9.538,0.000,0.000,0.264,0.189,0,0,0,0,7,255,0,250,0,0
prep,910,910,0,120982.412,-0.137,-0.066,0.069,0.986,0,0,8,0,3295,0,0,43,38,0.000,25,0,323.224,7.831,154.940,241.360,-149.040,0.594,0.545,1.813,-7.736,-1.214,8.242,0.000,0.000,0.264,0.189,0,0,0,0,7,255,0,250,0,0
prep,910,910,0,120987.411,-0.144,-0.075,0.078,0.984,0,0,8,0,3333,0,0,44,38,0.000,25,0,335.796,9.126,184.300,232.620,-157.100,0.820,0.490,1.955,-9.072,-0.988,8.184,0.000,0.000,0.264,0.189,0,0,0,0,7,255,0,250,0,0
prep,927,927,0,120992.411,-0.150,-0.085,0.088,0.981,0,0,9,0,3315,0,0,43,38,0.000,25,0,347.012,11.521,202.900,244.540,-139.460,1.026,0.309,2.049,-11.492,0.812,8.184,0.000,0.000,0.264,0.189,0,0,0,0,7,255,0,250,0,0
prep,927,927,0,120997.411,-0.154,-0.094,0.097,0.979,0,0,8,0,3326,0,0,43,38,0.000,25,0,322.891,13.792,197.600,234.880,-100.220,1.126,0.354,2.060,-13.272,3.750,8.184,0.000,0.000,0.264,0.189,0,0,0,0,7,255,0,250,0,0
prep,958,958,0,121002.412,-0.157,-0.102,0.106,0.977,0,0,5,0,3311,0,0,41,38,0.000,25,0,292.416,15.180,187.340,213.960,-68.060,1.167,0.423,2.134,-14.606,4.136,8.246,0.000,0.000,0.264,0.189,0,0,0,0,7,255,0,250,0,0
prep,958,958,0,121007.411,-0.158,-0.110,0.115,0.975,0,0,7,0,3325,0,0,46,38,0.000,25,0,260.633,15.841,169.760,195.040,-32.720,1.103,0.483,2.097,-15.292,4.136,7.972,0.000,0.000,0.264,0.189,0,0,0,0,7,255,0,250,0,0
prep,958,958,0,121012.411,-0.158,-0.116,0.123,0.973,0,0,10,0,3292,0,0,43,38,0.000,25,0,237.865,15.760,157.920,177.580,-10.320,1.006,0.517,2.066,-15.292,3.812,7.972,0.000,0.000,0.264,0.189,0,0,0,0,7,255,0,250,0,0
prep,958,958,0,121017.411,-0.158,-0.123,0.130,0.971,0,0,8,0,3316,0,0,45,38,0.000,25,0,231.464,15.472,141.940,182.820,2.320,1.016,0.537,2.079,-15.030,3.670,7.768,0.000,0.000,0.264,0.189,0,0,0,0,7,255,0,250,0,0
prep,958,958,0,121022.411,-0.157,-0.129,0.136,0.969,0,0,11,0,3275,0,0,45,38,0.000,25,0,215.795,15.131,123.680,176.660,7.880,0.981,0.574,1.925,-14.722,3.496,7.668,0.000,0.000,0.264,0.189,0,0,0,0,7,255,0,250,0,0
prep,958,958,0,121027.411,-0.157,-0.135,0.142,0.968,0,0,9,0,3295,0,0,42,38,0.000,25,0,194.053,15.095,113.860,157.120,-2.380,0.976,0.512,1.765,-14.722,3.334,6.216,0.000,0.000,0.264,0.189,0,0,0,0,7,255,0,250,0,0
prep,958,958,0,121032.411,-0.157,-0.141,0.147,0.966,0,0,11,0,3287,0,0,41,38,0.000,25,0,177.896,15.095,103.960,144.060,-9.280,1.101,0.414,1.760,-14.722,3.334,4.452,0.000,0.000,0.264,0.189,0,0,0,0,7,255,0,250,0,0
prep,958,958,0,121037.411,-0.157,-0.146,0.152,0.965,0,0,11,0,3284,0,0,39,38,0.000,25,0,166.007,15.909,93.340,137.240,-3.360,1.242,0.378,1.666,-15.196,4.708,3.628,0.000,0.000,0.264,0.189,0,0,0,0,7,255,0,250,0,0
prep,974,974,0,121042.411,-0.156,-0.152,0.157,0.963,0,0,16,0,3275,0,0,39,38,0.000,25,0,169.304,17.068,81.440,147.420,17.280,1.392,0.312,1.569,-16.246,5.232,2.062,0.000,0.000,0.264,0.189,0,0,0,0,7,255,0,250,0,0
prep,974,974,0,121047.411,-0.154,-0.157,0.161,0.962,0,0,19,0,3285,0,0,41,38,0.000,25,0,169.487,18.248,74.300,145.840,44.000,1.491,0.196,1.422,-17.244,5.970,0.334,0.000,0.000,0.264,0.189,0,0,0,0,7,255,0,250,0,0
prep,974,974,0,121052.412,-0.150,-0.161,0.166,0.961,0,0,21,0,3261,0,0,44,38,0.000,25,0,175.404,18.528,81.820,134.120,78.000,1.513,0.056,1.252,-17.244,6.776,-1.808,0.000,0.000,0.264,0.189,0,0,0,0,7,255,0,250,0,0
prep,974,974,0,121057.411,-0.145,-0.165,0.171,0.960,0,0,23,0,3255,0,0,53,38,0.000,25,0,186.937,18.459,94.320,115.260,112.980,1.472,-0.040,1.164,-16.886,7.456,-3.930,0.000,0.000,0.264,0.189,0,0,0,0,7,255,0,250,0,0
prep,990,990,0,121062.411,-0.139,-0.167,0.178,0.960,0,0,20,0,3240,0,0,47,38,0.000,25,0,208.257,17.872,108.060,95.540,150.220,1.415,-0.075,1.151,-16.066,7.828,-4.976,0.000,0.000,0.264,0.189,0,0,0,0,7,255,0,250,0,0
prep,990,990,0,121067.411,-0.132,-0.169,0.184,0.959,0,0,23,0,3262,0,0,43,38,0.000,25,0,229.684,17.383,118.060,82.660,178.840,1.305,-0.138,1.149,-15.496,7.876,-5.016,0.000,0.000,0.264,0.189,0,0,0,0,7,255,0,250,0,0
prep,1007,1007,0,121072.411,-0.124,-0.169,0.191,0.959,0,0,19,0,3262,0,0,45,38,0.000,25,0,246.965,16.526,127.160,70.640,199.580,1.173,-0.249,1.120,-14.406,8.098,-5.104,0.000,0.000,0.264,0.189,0,0,0,0,7,255,0,250,0,0
prep,1007,1007,0,121077.411,-0.115,-0.169,0.199,0.958,0,0,21,0,3270,0,0,43,38,0.000,25,0,253.046,15.528,131.800,55.800,208.680,1.033,-0.433,1.100,-12.910,8.628,-5.224,0.000,0.000,0.264,0.189,0,0,0,0,7,255,0,250,0,0
prep,1007,1007,0,121082.411,-0.107,-0.169,0.206,0.958,0,0,24,0,3246,0,0,43,38,0.000,25,0,255.137,14.900,139.740,43.240,209.040,0.886,-0.626,1.053,-11.168,9.864,-5.580,0.000,0.000,0.264,0.189,0,0,0,0,7,255,0,250,0,0
prep,1007,1007,0,121087.411,-0.100,-0.168,0.214,0.957,0,0,27,0,3277,0,0,49,38,0.000,25,0,258.888,14.482,158.360,37.080,201.420,0.724,-0.755,1.118,-9.296,11.104,-5.718,0.000,0.000,0.264,0.189,0,0,0,0,7,255,0,250,0,0
prep,1022,1022,0,121092.411,-0.093,-0.167,0.223,0.956,0,0,21,0,3259,0,0,52,38,0.000,25,0,254.793,14.525,172.200,41.460,183.160,0.571,-0.778,1.258,-7.774,12.270,-5.718,0.000,0.000,0.264,0.189,0,0,0,0,7,255,0,250,0,0
prep,1022,1022,0,121097.411,-0.087,-0.167,0.232,0.954,0,0,26,0,3277,0,0,53,38,0.000,25,0,244.895,14.612,184.960,49.580,152.660,0.437,-0.735,1.374,-6.794,12.936,-4.292,0.000,0.000,0.264,0.189,0,0,0,0,7,255,0,250,0,0
prep,1054,1054,0,121102.411,-0.083,-0.167,0.241,0.953,0,0,23,0,3273,0,0,48,38,0.000,25,0,219.327,14.509,182.220,47.700,112.360,0.389,-0.663,1.585,-6.394,13.024,-2.932,0.000,0.000,0.264,0.189,0,0,0,0,7,255,0,250,0,0
prep,1054,1054,0,121107.411,-0.081,-0.167,0.248,0.951,0,0,19,0,3318,0,0,53,38,0.000,25,0,175.850,14.896,155.420,35.360,74.280,0.404,-0.588,1.770,-6.394,13.454,-0.962,0.000,0.000,0.264,0.189,0,0,0,0,7,255,0,250,0,0
prep,1054,1054,0,121112.411,-0.080,-0.167,0.252,0.950,0,0,22,0,3321,0,0,52,38,0.000,25,0,115.637,15.606,105.320,20.540,43.100,0.458,-0.522,1.899,-7.214,13.838,0.612,0.000,0.000,0.264,0.189,0,0,0,0,7,255,0,250,0,0
prep,1054,1054,0,121117.411,-0.079,-0.168,0.254,0.949,0,0,23,0,3337,0,0,55,38,0.000,25,0,52.196,16.089,46.960,11.620,19.600,0.528,-0.452,1.842,-8.208,13.838,1.176,0.000,0.000,0.264,0.189,0,0,0,0,7,255,0,250,0,0
prep,1054,1054,0,121122.411,-0.079,-0.168,0.254,0.949,0,0,21,0,3289,0,0,56,38,0.000,25,0,4.435,15.947,-4.360,-0.340,0.740,0.589,-0.387,1.662,-8.858,13.260,1.176,0.000,0.000,0.264,0.189,0,0,0,0,7,255,0,250,0,0
prep,1054,1054,0,121127.411,-0.079,-0.167,0.253,0.950,0,0,17,0,3320,0,0,55,38,0.000,25,0,40.551,14.882,-36.220,-9.980,-15.260,0.641,-0.358,1.424,-8.982,11.866,-0.200,0.000,0.000,0.264,0.189,0,0,0,0,7,255,0,250,0,0
prep,1071,1071,0,121132.411,-0.081,-0.167,0.250,0.950,0,0,18,0,3308,0,0,55,38,0.000,25,0,65.245,13.789,-53.620,-20.240,-31.180,0.674,-0.360,1.276,-8.982,10.462,-2.128,0.000,0.000,0.264,0.189,0,0,0,0,7,255,0,250,0,0
prep,1071,1071,0,121137.413,-0.082,-0.167,0.247,0.951,0,0,12,0,3316,0,0,55,38,0.000,25,0,89.774,13.231,-70.720,-31.660,-45.340,0.708,-0.357,1.188,-8.940,9.754,-3.394,0.000,0.000,0.264,0.189,0,0,0,0,7,255,0,250,0,0
prep,1071,1071,0,121142.411,-0.084,-0.166,0.243,0.952,0,0,5,0,3317,0,0,51,38,0.000,25,0,110.480,12.857,-84.500,-40.940,-58.220,0.736,-0.336,1.030,-8.872,9.306,-4.142,0.000,0.000,0.264,0.189,0,0,0,0,7,255,0,250,0,0
prep,1071,1071,0,121147.411,-0.087,-0.165,0.238,0.953,0,0,8,0,3326,0,0,53,38,0.000,25,0,122.559,12.147,-87.000,-52.400,-68.600,0.762,-0.317,0.904,-8.794,8.380,-5.360,0.000,0.000,0.264,0.189,0,0,0,0,7,255,0,250,0,0
prep,1072,1072,0,121152.411,-0.090,-0.163,0.234,0.954,0,0,4,0,3301,0,0,57,38,0.000,25,0,124.178,11.588,-79.920,-60.280,-73.480,0.775,-0.321,0.799,-8.708,7.646,-6.322,0.000,0.000,0.264,0.189,0,0,0,0,7,255,0,250,0,0
prep,1072,1072,0,121157.411,-0.094,-0.161,0.231,0.955,0,0,1,0,3328,0,0,52,38,0.000,25,0,117.511,11.153,-63.760,-65.280,-74.040,0.750,-0.317,0.733,-8.500,7.220,-7.168,0.000,0.000,0.264,0.189,0,0,0,0,7,255,0,250,0,0
prep,1087,1087,0,121162.411,-0.097,-0.159,0.228,0.956,0,0,0,0,3325,0,0,53,38,0.000,25,0,117.024,10.611,-50.760,-70.420,-78.480,0.719,-0.339,0.640,-8.072,6.888,-7.546,0.000,0.000,0.264,0.189,0,0,0,0,7,255,0,250,0,0
prep,1087,1087,0,121167.411,-0.101,-0.157,0.226,0.956,0,0,0,0,3338,0,0,51,38,0.000,25,0,114.608,10.073,-26.040,-77.620,-80.200,0.691,-0.373,0.600,-7.444,6.786,-8.242,0.000,0.000,0.264,0.189,0,0,0,0,7,255,0,250,0,0
prep,1102,1102,0,121172.411,-0.105,-0.155,0.225,0.956,0,0,0,0,3332,0,0,58,38,0.000,25,0,111.541,9.711,2.600,-78.960,-78.740,0.646,-0.385,0.658,-6.946,6.786,-8.242,0.000,0.000,0.264,0.189,0,0,0,0,7,255,0,250,0,0
prep,1102,1102,0,121177.411,-0.109,-0.152,0.225,0.956,0,0,0,0,3337,0,0,56,38,0.000,25,0,111.312,9.711,27.440,-76.400,-76.160,0.575,-0.349,0.770,-6.578,7.144,-7.926,0.000,0.000,0.264,0.189,0,0,0,0,7,255,0,250,0,0
prep,1102,1102,0,121182.411,-0.114,-0.149,0.226,0.956,0,0,0,0,3303,0,0,53,38,0.000,25,0,117.495,9.583,42.440,-76.880,-78.060,0.486,-0.314,0.896,-6.218,7.292,-6.584,0.000,0.000,0.264,0.189,0,0,0,0,7,255,0,250,0,0
prep,1102,1102,0,121187.411,-0.115,-0.144,0.235,0.954,0,0,0,0,3315,0,0,48,38,0.000,25,0,244.469,9.414,221.100,-103.560,12.460,0.000,-0.188,2.111,-5.708,7.486,-5.076,0.000,0.000,0.264,0.189,0,0,0,0,7,255,0,250,0,0
prep,1118,1118,0,121192.411,-0.096,-0.125,0.261,0.952,0,0,0,0,3271,0,0,55,38,0.000,25,0,860.251,8.733,565.460,-223.420,608.580,-0.714,1.607,3.960,-4.498,7.486,7.090,0.000,0.000,0.264,0.189,0,0,0,0,7,255,0,250,0,0
prep,1118,1118,0,121197.411,-0.072,-0.110,0.266,0.955,0,0,0,0,3041,0,0,57,38,0.000,25,0,669.323,6.975,67.840,-206.460,633.060,-1.135,3.272,4.969,-4.060,5.672,32.040,0.000,0.000,0.264,0.189,0,0,0,0,7,255,0,250,0,0
prep,1150,1150,0,121202.411,-0.064,-0.104,0.245,0.962,0,0,0,81,2663,0,0,57,38,0.000,25,0,550.673,6.758,-507.120,-139.320,163.280,-2.385,0.151,3.758,-3.674,5.672,32.040,0.000,0.000,0.264,0.189,0,0,0,0,7,255,0,250,0,0
prep,1150,1150,0,121207.411,-0.067,-0.103,0.207,0.971,213,0,0,532,2367,21,0,69,38,0.000,25,0,675.619,21.699,-655.360,-103.920,-127.140,-2.045,-1.077,1.612,16.354,14.262,27.928,0.000,0.000,0.264,0.189,0,0,0,0,7,255,0,250,0,0
prep,1150,1150,0,121212.411,-0.074,-0.107,0.173,0.976,1195,0,0,1287,2099,55,0,77,38,0.000,25,0,698.894,21.699,-655.360,-5.720,-242.740,-0.917,0.903,-0.527,16.354,14.262,4.788,0.000,0.000,0.264,0.189,0,0,0,0,7,255,0,250,0,0
prep,1150,1150,0,121217.411,-0.083,-0.113,0.149,0.979,2185,0,0,1771,1878,107,0,82,38,0.000,25,0,602.218,13.541,-531.460,46.280,-279.420,-0.362,2.669,-1.057,7.914,-10.988,-9.786,0.000,0.000,0.264,0.189,0,0,0,0,7,255,0,250,0,0
prep,1150,1150,0,121222.411,-0.092,-0.119,0.140,0.979,2556,0,0,2021,1693,171,0,78,38,0.000,25,0,319.132,28.271,-191.140,86.320,-240.540,0.096,3.100,-0.768,0.192,-28.270,-9.786,0.000,0.000,0.264,0.189,0,0,0,0,7,255,0,250,0,0
prep,1150,1150,0,121227.411,-0.098,-0.124,0.145,0.977,2755,0,0,2213,1520,247,0,77,38,0.000,25,0,222.000,28.883,122.520,116.000,-144.280,0.276,2.255,-0.237,-5.920,-28.270,-9.716,0.000,0.000,0.264,0.189,0,0,0,0,7,255,0,250,0,0
prep,1167,1167,0,121232.411,-0.101,-0.127,0.156,0.974,2911,0,0,2439,1395,363,0,82,38,0.000,25,0,273.826,21.867,255.580,83.820,-51.320,-0.030,0.146,0.354,-5.920,-21.050,-7.184,0.000,0.000,0.264,0.189,0,0,0,0,7,255,0,250,0,0
prep,1167,1167,0,121237.411,-0.100,-0.123,0.164,0.974,3081,0,0,2767,1275,418,0,93,38,0.000,25,0,191.746,0.933,173.740,-51.180,62.940,-1.156,-3.584,1.862,-0.902,-0.238,-6.170,0.000,0.000,0.264,0.189,1,0,0,0,7,255,0,250,0,0
prep,1182,1182,0,121242.411,-0.098,-0.115,0.157,0.976,3172,0,0,2921,1181,456,0,95,38,0.000,25,0,250.809,28.885,-151.340,-190.960,59.460,-1.164,-2.256,2.464,11.170,26.638,-0.060,0.000,0.000,0.264,0.189,1,0,0,0,7,255,0,250,0,0
prep,1182,1182,0,121247.411,-0.100,-0.109,0.142,0.979,3221,0,0,3006,1102,505,0,102,38,0.000,25,0,373.626,28.885,-319.120,-184.420,-61.220,-1.149,-0.733,1.722,11.170,26.638,6.898,0.000,0.000,0.264,0.189,1,0,0,0,7,255,0,250,0,0
prep,1182,1182,0,121252.411,-0.104,-0.107,0.127,0.981,3247,0,0,3083,1043,614,0,114,38,0.000,25,0,379.327,13.488,-338.660,-114.300,-127.020,-0.464,-0.512,0.633,9.232,9.834,6.898,0.000,0.000,0.264,0.189,1,0,0,0,7,255,0,250,0,0
prep,1182,1182,0,121257.411,-0.111,-0.106,0.116,0.981,3291,0,0,3135,1071,657,0,115,38,0.000,25,0,275.851,10.730,-216.340,-67.060,-157.460,-0.167,-1.169,0.042,4.292,9.834,-4.006,0.000,0.000,0.264,0.189,1,0,0,0,7,255,0,250,0,0
prep,1200,1200,0,121262.411,-0.115,-0.105,0.112,0.981,3324,0,0,3165,1639,697,0,117,38,0.000,26,0,149.670,11.487,-89.020,-26.520,-117.360,0.379,-1.165,0.041,4.132,10.718,-11.326,0.000,0.000,0.264,0.189,1,0,0,0,7,255,0,250,0,0
prep,1200,1200,0,121267.411,-0.118,-0.106,0.114,0.981,3349,0,0,3225,2036,731,0,124,38,0.000,26,0,82.294,10.755,54.780,6.180,-61.100,0.920,-0.379,0.666,-0.888,10.718,-11.326,0.000,0.000,0.264,0.189,1,0,0,0,7,255,0,250,0,0
prep,1200,1200,0,121272.411,-0.118,-0.105,0.119,0.980,3335,0,0,3211,2265,779,0,137,38,0.000,26,0,115.074,13.216,113.980,-7.420,13.980,0.937,-0.598,0.935,-8.902,9.768,-6.372,0.000,0.000,0.264,0.189,1,0,0,0,7,255,0,250,0,0
prep,1200,1200,0,121277.411,-0.113,-0.100,0.122,0.981,3343,0,0,3225,2336,845,0,151,38,0.000,26,0,182.872,13.216,83.460,-87.260,137.340,0.502,-0.809,0.920,-8.902,9.768,-4.362,0.000,0.000,0.264,0.189,1,0,0,0,7,255,0,250,0,0
prep,1214,1214,0,121282.411,-0.106,-0.092,0.125,0.982,3351,0,0,3221,2293,893,0,173,38,0.000,26,0,243.606,10.698,54.280,-155.560,179.440,-0.228,-0.325,1.013,-4.362,9.768,-3.966,0.000,0.000,0.264,0.189,1,0,0,0,7,255,0,250,0,0
prep,1214,1214,0,121287.411,-0.102,-0.084,0.127,0.983,3353,0,0,3221,2537,946,0,235,38,0.000,26,0,213.102,5.173,66.680,-163.300,119.580,-0.310,0.425,1.647,-0.278,5.166,-0.600,0.000,0.000,0.264,0.189,2,0,0,0,7,255,0,250,0,0
prep,1214,1214,0,121292.411,-0.102,-0.080,0.130,0.983,3351,0,0,3211,2791,1013,41,289,38,0.000,26,0,116.295,1.019,72.100,-90.180,13.920,-0.174,0.390,1.902,-0.278,0.980,7.102,0.000,0.000,0.264,0.189,2,0,0,0,7,255,0,250,0,0
prep,1214,1214,0,121297.411,-0.103,-0.079,0.131,0.983,3349,0,0,3225,2894,1053,91,327,38,0.000,26,0,37.496,1.706,31.040,-20.980,1.520,0.044,0.422,1.620,-1.662,0.386,7.102,0.000,0.000,0.264,0.189,2,0,0,0,7,255,0,250,0,0
prep,1246,1246,0,121302.411,-0.102,-0.079,0.131,0.983,3337,0,0,3240,3135,1098,73,373,38,0.000,26,0,5.605,3.438,-1.860,-3.020,4.340,0.175,0.337,1.124,-3.416,0.386,6.236,0.000,0.000,0.264,0.189,2,0,0,0,7,255,0,250,0,0
prep,1246,1246,0,121307.411,-0.102,-0.077,0.131,0.983,3360,0,0,3251,3565,1129,87,443,38,0.000,26,0,21.564,3.438,-1.680,-21.280,3.060,0.203,0.117,0.910,-3.416,0.386,1.166,0.000,0.000,0.264,0.189,2,0,0,0,7,255,0,250,0,0
prep,1246,1246,0,121312.411,-0.102,-0.075,0.130,0.983,3351,0,0,3225,3723,1182,103,539,38,0.000,26,0,42.121,3.554,-0.580,-40.740,10.680,0.082,0.158,0.947,-3.364,1.148,-0.722,0.000,0.000,0.264,0.189,2,0,0,0,7,255,0,250,0,0
prep,1246,1246,0,121317.411,-0.101,-0.073,0.130,0.984,3375,0,0,3231,3753,1213,104,627,38,0.000,26,0,49.771,2.578,-1.140,-42.940,25.140,-0.106,0.356,1.077,-2.308,1.148,-0.722,0.000,0.000,0.264,0.189,2,0,0,0,7,255,0,250,0,0
prep,1246,1246,0,121322.411,-0.101,-0.071,0.130,0.984,3366,0,0,3245,3763,1235,109,695,38,0.000,26,0,39.506,1.266,1.360,-38.980,6.280,-0.260,0.461,1.099,-1.050,-0.708,1.256,0.000,0.000,0.264,0.189,2,0,0,0,7,255,0,250,0,0
prep,1246,1246,0,121327.411,-0.102,-0.070,0.130,0.984,3355,0,0,3231,3771,1232,94,761,38,0.000,26,0,40.223,1.774,-0.220,-29.940,-26.860,-0.254,0.472,1.193,0.042,-1.774,1.952,0.000,0.000,0.264,0.189,2,0,0,0,7,255,0,250,0,0
prep,1278,1278,0,121332.411,-0.104,-0.070,0.129,0.984,3357,0,0,3240,3785,1252,112,818,38,0.000,26,0,49.354,1.785,-15.840,-9.440,-45.780,-0.243,0.099,1.036,0.202,-1.774,1.952,0.000,0.000,0.264,0.189,2,0,0,0,7,255,0,250,0,0
prep,1278,1278,0,121337.411,-0.106,-0.070,0.128,0.984,3359,0,0,3247,3798,1266,108,875,38,0.000,26,0,48.679,1.295,-25.540,-3.160,-41.320,-0.020,-0.092,1.117,0.042,1.294,0.502,0.000,0.000,0.264,0.189,2,0,0,0,7,255,0,250,0,0
prep,1278,1278,0,121342.411,-0.106,-0.072,0.126,0.984,3357,0,0,3240,3805,1268,111,921,38,0.000,26,0,54.060,3.232,-44.340,30.480,-5.240,0.010,-0.039,1.086,-0.892,3.106,0.498,0.000,0.000,0.264,0.189,2,0,0,0,7,255,0,250,0,0
prep,1278,1278,0,121347.411,-0.105,-0.073,0.124,0.984,3368,0,0,3273,3811,1264,113,968,38,0.000,26,0,45.830,3.232,-39.460,20.900,10.320,-0.125,0.083,0.765,-0.892,3.106,0.288,0.000,0.000,0.264,0.189,2,0,0,0,7,255,0,250,0,0
prep,1278,1278,0,121352.411,-0.106,-0.073,0.124,0.984,3363,0,0,3255,3805,1275,103,1000,38,0.000,26,0,23.741,0.904,-23.420,2.640,-2.860,-0.185,0.318,0.923,-0.086,0.900,-0.158,0.000,0.000,0.264,0.189,2,0,0,0,7,255,0,250,0,0
prep,1278,1278,0,121357.411,-0.107,-0.073,0.123,0.984,3376,0,0,3259,3823,1279,111,1033,38,0.000,26,0,27.210,0.623,-12.540,-2.840,-23.980,-0.246,0.259,0.914,0.042,-0.622,-0.282,0.000,0.000,0.264,0.189,2,0,0,0,7,255,0,250,0,0
prep,1299,1299,0,121362.411,-0.108,-0.074,0.123,0.984,3378,0,17,3257,3836,1291,117,1064,38,0.000,26,0,41.131,0.628,-7.720,0.020,-40.400,-0.186,0.251,1.058,-0.086,-0.622,-0.158,0.000,0.000,0.264,0.189,2,0,0,0,7,255,0,250,0,0
prep,1299,1299,0,121367.411,-0.110,-0.074,0.122,0.984,3386,0,36,3274,3853,1300,137,1093,38,0.000,26,0,46.300,0.146,-11.940,8.700,-43.880,-0.126,0.103,1.014,-0.104,-0.102,0.146,0.000,0.000,0.264,0.189,2,0,0,0,7,255,0,250,0,0
prep,1299,1299,0,121372.411,-0.112,-0.075,0.121,0.983,3379,0,47,3269,3865,1300,141,1111,38,0.000,26,1,46.990,1.308,-9.800,9.980,-44.860,-0.057,0.097,1.017,-0.296,1.274,0.146,0.000,0.000,0.264,0.189,2,0,0,0,7,255,0,250,0,0
prep,1299,1299,0,121377.411,-0.113,-0.075,0.120,0.983,3398,0,149,3283,3878,1321,155,1125,38,0.000,26,1,35.394,1.702,-13.100,5.940,-32.340,-0.027,-0.008,0.945,-0.894,1.448,0.044,0.000,0.000,0.264,0.189,2,0,0,0,7,255,0,250,0,0
prep,1310,1310,0,121382.411,-0.114,-0.075,0.118,0.984,3391,0,170,3287,3897,1324,163,1147,38,0.000,26,1,21.204,2.249,-10.220,-0.840,-18.560,-0.054,0.006,0.964,-0.894,2.064,-0.618,0.000,0.000,0.264,0.189,2,0,0,0,7,255,0,250,0,0
prep,1310,1310,0,121387.411,-0.114,-0.074,0.116,0.984,3400,6,218,3287,3899,1337,157,1159,38,0.000,26,1,12.219,2.174,-12.180,-0.900,0.360,-0.090,0.039,1.020,-0.684,2.064,-0.618,0.000,0.000,0.264,0.189,2,0,0,0,7,255,0,250,0,0
prep,1310,1310,0,121392.411,-0.113,-0.075,0.115,0.984,3389,18,249,3288,3936,1358,173,1183,38,0.000,26,1,17.986,1.829,-12.920,-1.680,12.400,-0.212,0.064,0.975,-0.476,1.766,-0.130,0.000,0.000,0.264,0.189,2,0,0,0,7,255,0,250,0,0
prep,1310,1310,0,121397.411,-0.113,-0.076,0.114,0.984,3400,33,260,3291,3955,1375,183,1208,38,0.000,26,1,11.572,1.308,-8.160,-3.460,7.440,-0.320,0.157,0.972,0.652,1.134,0.040,0.000,0.000,0.264,0.189,2,0,0,0,7,255,0,250,0,0
prep,1358,1358,0,121402.413,-0.113,-0.076,0.114,0.984,3403,25,235,3292,3961,1371,213,1225,38,0.000,26,1,9.346,1.426,-3.320,-4.860,-7.260,-0.337,0.161,0.978,1.426,0.036,0.200,0.000,0.000,0.264,0.189,2,0,0,0,7,255,0,250,0,0
prep,1358,1358,0,121407.411,-0.114,-0.077,0.113,0.984,3416,49,293,3303,3967,1365,227,1239,38,0.000,26,1,23.187,1.426,-2.180,-7.300,-21.900,-0.267,0.166,1.002,1.426,0.036,0.294,0.000,0.000,0.264,0.189,2,0,0,0,7,255,0,250,0,0
prep,1358,1358,0,121412.411,-0.116,-0.076,0.113,0.984,3376,56,349,3299,3992,1373,240,1260,38,0.000,26,1,30.579,0.826,-2.540,-8.160,-29.360,-0.173,0.102,1.001,0.818,0.114,0.294,0.000,0.000,0.264,0.189,2,0,0,0,7,255,0,250,0,0
prep,1358,1358,0,121417.411,-0.117,-0.076,0.112,0.984,3411,58,365,3288,4005,1366,243,1275,38,0.000,26,1,28.743,0.880,-2.100,-7.600,-27.640,-0.118,0.045,0.995,0.080,0.876,0.122,0.000,0.000,0.264,0.189,2,0,0,0,7,255,0,250,0,0
prep,1358,1358,0,121422.411,-0.118,-0.076,0.110,0.984,3402,69,407,3287,4041,1384,263,1289,38,0.000,26,1,23.419,1.295,-6.800,-7.660,-21.060,-0.120,0.068,1.015,-0.290,1.262,0.110,0.000,0.000,0.264,0.189,2,0,0,0,7,255,0,250,0,0
prep,1358,1358,0,121427.411,-0.118,-0.076,0.109,0.984,3399,63,431,3291,4044,1385,267,1289,38,0.000,26,1,21.348,1.295,-9.320,-6.700,-18.000,-0.162,0.048,0.989,-0.290,1.262,-0.102,0.000,0.000,0.264,0.189,2,0,0,0,7,255,0,250,0,0
prep,1375,1375,0,121432.411,-0.119,-0.076,0.108,0.984,3392,72,453,3302,4053,1395,276,1304,38,0.000,26,1,22.659,1.261,-7.360,-4.560,-20.940,-0.186,0.089,0.970,0.130,1.254,-0.102,0.000,0.000,0.264,0.189,2,0,0,0,7,255,0,250,0,0
prep,1375,1375,0,121437.411,-0.120,-0.076,0.107,0.984,3388,85,475,3283,4052,1390,270,1309,38,0.000,26,1,25.698,0.761,-5.280,-3.080,-24.960,-0.164,0.158,1.012,0.130,0.750,-0.102,0.000,0.000,0.264,0.189,2,0,0,0,7,255,0,250,0,0
prep,1375,1375,0,121442.411,-0.121,-0.076,0.106,0.984,3391,81,485,3289,4059,1398,287,1311,38,0.000,26,1,22.838,0.765,-12.540,2.520,-18.920,-0.070,0.083,1.093,-0.150,0.750,0.320,0.000,0.000,0.264,0.189,2,0,0,0,7,255,0,250,0,0
prep,1375,1375,0,121447.411,-0.121,-0.076,0.105,0.984,3388,89,485,3287,4071,1391,277,1331,38,0.000,26,1,17.704,1.188,-16.460,3.200,-5.680,-0.133,0.047,0.977,-0.150,1.178,0.320,0.000,0.000,0.264,0.189,2,0,0,0,7,255,0,250,0,0
prep,1375,1375,0,121452.411,-0.122,-0.076,0.104,0.984,3397,96,504,3277,4089,1399,303,1326,38,0.000,26,1,15.702,1.185,-14.200,3.140,-5.920,-0.225,0.216,1.013,-0.124,1.178,0.528,0.000,0.000,0.264,0.189,2,0,0,0,7,255,0,250,0,0
prep,1375,1375,0,121457.411,-0.122,-0.077,0.104,0.984,3383,99,535,3287,4091,1398,316,1331,38,0.000,26,1,21.584,0.585,-10.100,3.860,-18.680,-0.288,0.218,0.964,0.260,-0.524,0.170,0.000,0.000,0.264,0.189,2,0,0,0,7,255,0,250,0,0
prep,1390,1390,0,121462.411,-0.124,-0.078,0.104,0.984,3373,102,537,3269,4090,1397,333,1319,38,0.000,26,1,37.245,0.862,-8.760,-0.100,-36.200,-0.265,0.183,1.001,0.684,-0.524,0.416,0.000,0.000,0.264,0.189,2,0,0,0,7,255,0,250,0,0
prep,1390,1390,0,121467.411,-0.126,-0.078,0.103,0.984,3375,109,569,3288,4095,1399,302,1310,38,0.000,26,1,50.024,0.759,-6.320,3.500,-49.500,-0.229,0.116,1.028,0.684,-0.330,0.416,0.000,0.000,0.264,0.189,2,0,0,0,7,255,0,250,0,0
prep,1406,1406,0,121472.411,-0.128,-0.079,0.102,0.983,3359,109,633,3281,4095,1401,304,1323,38,0.000,26,1,56.387,0.537,-11.560,16.260,-52.740,-0.154,0.165,1.105,0.464,0.270,0.496,0.000,0.000,0.264,0.189,2,0,0,0,7,255,0,250,0,0
prep,1406,1406,0,121477.411,-0.130,-0.080,0.101,0.983,3365,108,671,3263,4095,1389,311,1317,38,0.000,26,1,46.762,0.631,-23.840,13.820,-37.780,-0.062,0.012,0.974,-0.476,0.414,0.496,0.000,0.000,0.264,0.189,2,0,0,0,7,255,0,250,0,0
prep,1406,1406,0,121482.411,-0.130,-0.080,0.099,0.983,3367,112,688,3261,4095,1384,313,1315,38,0.000,26,1,32.995,1.764,-24.640,7.340,-20.680,-0.068,0.008,0.993,-0.746,1.598,-0.288,0.000,0.000,0.264,0.189,2,0,0,0,7,255,0,250,0,0
prep,1406,1406,0,121487.411,-0.131,-0.080,0.098,0.983,3359,117,699,3268,4095,1377,360,1311,38,0.000,26,1,23.984,1.764,-22.180,5.020,-7.620,-0.148,0.105,0.934,-0.746,1.598,-0.486,0.000,0.000,0.264,0.189,2,0,0,0,7,255,0,250,0,0
prep,1422,1422,0,121492.411,-0.131,-0.081,0.097,0.983,3352,116,709,3243,4093,1352,373,1300,38,0.000,26,1,21.971,0.411,-21.520,1.980,-3.960,-0.181,0.140,0.977,-0.182,0.368,-0.288,0.000,0.000,0.264,0.189,2,0,0,0,7,255,0,250,0,0
prep,1422,1422,0,121497.411,-0.131,-0.081,0.095,0.983,3368,107,721,3253,4093,1342,367,1292,38,0.000,26,1,23.462,0.370,-23.160,1.060,-3.600,-0.197,0.084,1.002,-0.036,0.368,-0.030,0.000,0.000,0.264,0.189,2,0,0,0,7,255,0,250,0,0
prep,1454,1454,0,121502.411,-0.131,-0.081,0.094,0.984,3343,117,741,3261,4088,1327,457,1309,38,0.000,26,1,27.154,0.529,-26.820,3.080,-2.920,-0.187,0.089,1.034,0.058,0.526,0.158,0.000,0.000,0.264,0.189,2,0,0,0,7,255,0,250,0,0
prep,1454,1454,0,121507.411,-0.131,-0.082,0.092,0.984,3337,119,748,3229,4095,1319,466,1295,38,0.000,26,1,33.922,0.529,-33.480,5.160,1.780,-0.184,0.110,1.002,0.058,0.526,0.166,0.000,0.000,0.264,0.189,2,0,0,0,7,255,0,250,0,0
prep,1454,1454,0,121512.411,-0.130,-0.082,0.091,0.984,3352,121,775,3229,4095,1315,475,1292,38,0.000,26,1,32.027,0.261,-31.660,3.740,3.060,-0.227,0.128,0.935,0.058,0.254,0.166,0.000,0.000,0.264,0.189,2,0,0,0,7,255,0,250,0,0
prep,1454,1454,0,121517.411,-0.130,-0.083,0.090,0.984,3321,137,832,3229,4095,1315,485,1304,38,0.000,26,1,25.126,0.459,-25.060,1.240,-1.340,-0.244,0.169,0.946,0.428,-0.166,-0.166,0.000,0.000,0.264,0.189,2,0,0,0,7,255,0,250,0,0
prep,1454,1454,0,121522.411,-0.131,-0.084,0.089,0.984,3320,119,856,3224,4095,1317,487,1327,38,0.000,26,1,23.104,0.600,-20.480,5.520,-9.160,-0.251,0.161,1.009,0.430,-0.418,-0.166,0.000,0.000,0.264,0.189,2,0,0,0,7,255,0,250,0,0
prep,1454,1454,0,121527.411,-0.131,-0.085,0.088,0.984,3320,121,878,3219,4095,1305,486,1319,38,0.000,26,1,31.868,0.600,-20.120,15.900,-18.920,-0.252,0.150,1.065,0.430,-0.418,0.432,0.000,0.000,0.264,0.189,2,0,0,0,7,255,0,250,0,0
prep,1470,1470,0,121532.411,-0.132,-0.086,0.087,0.984,3319,112,903,3213,4095,1315,519,1337,38,0.000,26,1,46.343,0.489,-23.340,32.500,-23.380,-0.243,0.060,1.011,0.430,-0.232,0.432,0.000,0.000,0.264,0.189,2,0,0,0,7,255,0,250,0,0
prep,1470,1470,0,121537.411,-0.133,-0.088,0.086,0.983,3305,120,936,3195,4095,1311,511,1336,38,0.000,26,1,42.424,0.544,-20.300,26.140,-26.540,-0.188,0.057,0.873,0.364,0.404,0.286,0.000,0.000,0.264,0.189,2,0,0,0,7,255,0,250,0,0
prep,1470,1470,0,121542.411,-0.134,-0.088,0.085,0.983,3287,126,949,3197,4095,1295,506,1344,38,0.000,26,1,33.854,0.453,-22.860,8.440,-23.500,-0.148,0.085,0.926,0.206,0.404,-0.646,0.000,0.000,0.264,0.189,2,0,0,0,7,255,0,250,0,0
prep,1470,1470,0,121547.411,-0.135,-0.089,0.084,0.983,3282,133,971,3187,4095,1295,573,1341,38,0.000,26,1,30.600,0.501,-23.600,5.520,-18.680,-0.155,0.061,0.996,-0.296,0.404,-0.646,0.000,0.000,0.264,0.189,2,0,0,0,7,255,0,250,0,0
prep,1486,1486,0,121552.411,-0.135,-0.089,0.082,0.983,3285,135,1033,3209,4095,1300,589,1355,38,0.000,26,1,32.797,0.678,-28.040,11.320,-12.700,-0.175,-0.001,1.019,-0.296,0.610,0.002,0.000,0.000,0.264,0.189,2,0,0,0,7,255,0,250,0,0
prep,1486,1486,0,121557.411,-0.135,-0.090,0.080,0.983,3289,141,1043,3182,4095,1305,595,1335,38,0.000,26,1,36.083,0.828,-31.900,14.000,-9.400,-0.210,0.009,0.969,0.006,0.828,0.002,0.000,0.000,0.264,0.189,2,0,0,0,7,255,0,250,0,0
prep,1486,1486,0,121562.411,-0.136,-0.091,0.079,0.983,3253,148,1085,3192,4095,1305,613,1351,38,0.000,26,1,33.401,0.898,-28.120,12.100,-13.360,-0.255,0.073,0.917,0.348,0.828,-0.210,0.000,0.000,0.264,0.189,2,0,0,0,7,255,0,250,0,0
prep,1486,1486,0,121567.411,-0.137,-0.092,0.078,0.983,3251,139,1134,3167,4095,1307,629,1351,38,0.000,26,1,34.441,0.348,-23.900,10.640,-22.400,-0.246,0.121,0.955,0.348,0.008,-0.210,0.000,0.000,0.264,0.189,2,0,0,0,7,255,0,250,0,0
prep,1505,1505,0,121572.411,-0.138,-0.093,0.077,0.983,3247,149,1163,3176,4095,1319,657,1353,38,0.000,26,1,37.769,0.338,-22.440,10.520,-28.500,-0.208,0.087,0.968,0.338,0.008,-0.132,0.000,0.000,0.264,0.189,2,0,0,0,7,255,0,250,0,0
prep,1505,1505,0,121577.411,-0.139,-0.093,0.076,0.983,3245,149,1192,3171,4095,1311,657,1371,38,0.000,26,1,37.774,0.063,-21.940,7.660,-29.780,-0.188,0.025,0.948,0.050,0.038,-0.132,0.000,0.000,0.264,0.189,2,0,0,0,7,255,0,250,0,0
prep,1518,1518,0,121582.411,-0.140,-0.094,0.074,0.983,3231,156,1224,3155,4095,1311,659,1367,38,0.000,26,1,37.760,0.608,-25.360,3.920,-27.700,-0.148,-0.009,1.002,0.048,0.606,-0.116,0.000,0.000,0.264,0.189,2,0,0,0,7,255,0,250,0,0
prep,1518,1518,0,121587.411,-0.141,-0.094,0.072,0.983,3226,181,1259,3160,4095,1319,635,1378,38,0.000,26,1,39.068,1.114,-34.700,-0.640,-17.940,-0.123,-0.011,0.978,-0.322,1.066,-0.280,0.000,0.000,0.264,0.189,2,0,0,0,7,255,0,250,0,0
prep,1518,1518,0,121592.411,-0.141,-0.094,0.070,0.983,3227,159,1291,3155,4095,1325,647,1395,38,0.000,26,1,32.468,1.114,-29.820,-0.780,-12.820,-0.208,-0.018,0.891,-0.322,1.066,-0.280,0.000,0.000,0.264,0.189,2,0,0,0,7,255,0,250,0,0
prep,1518,1518,0,121597.412,-0.142,-0.095,0.069,0.983,3214,169,1309,3147,4095,1323,671,1397,38,0.000,26,1,25.874,0.847,-19.380,-0.280,-17.140,-0.245,0.021,0.915,0.422,0.734,-0.592,0.000,0.000,0.264,0.189,2,0,0,0,7,255,0,250,0,0
prep,1550,1550,0,121602.411,-0.142,-0.095,0.068,0.983,3225,183,1337,3151,4095,1334,691,1403,38,0.000,26,1,26.215,0.530,-14.560,0.940,-21.780,-0.218,0.032,0.976,0.422,0.320,-0.592,0.000,0.000,0.264,0.189,2,0,0,0,7,255,0,250,0,0
prep,1550,1550,0,121607.411,-0.143,-0.095,0.067,0.983,3211,187,1373,3147,4095,1347,709,1401,38,0.000,26,1,29.115,0.377,-16.200,3.620,-23.920,-0.221,0.012,1.025,0.200,0.320,-0.044,0.000,0.000,0.264,0.189,2,0,0,0,7,255,0,250,0,0
prep,1550,1550,0,121612.411,-0.144,-0.096,0.065,0.983,3189,200,1395,3132,4095,1335,695,1407,38,0.000,26,1,34.662,0.575,-26.520,2.100,-22.220,-0.182,0.009,1.015,0.192,0.542,0.236,0.000,0.000,0.264,0.189,2,0,0,0,7,255,0,250,0,0
prep,1550,1550,0,121617.411,-0.145,-0.096,0.064,0.983,3210,199,1423,3145,4095,1332,723,1431,38,0.000,26,1,29.143,0.615,-21.640,0.140,-19.520,-0.224,-0.025,0.866,0.192,0.584,0.236,0.000,0.000,0.264,0.189,2,0,0,0,7,255,0,250,0,0
prep,1550,1550,0,121622.411,-0.146,-0.096,0.063,0.983,3180,198,1451,3134,4095,1352,733,1434,38,0.000,26,1,26.874,0.812,-11.700,-6.440,-23.320,-0.248,0.001,0.919,0.564,0.584,-0.540,0.000,0.000,0.264,0.189,2,0,0,0,7,255,0,250,0,0
prep,1550,1550,0,121627.411,-0.147,-0.096,0.062,0.982,3175,209,1485,3127,4095,1361,755,1435,38,0.000,26,1,28.829,0.651,-6.740,-7.600,-26.980,-0.227,0.012,0.964,0.564,0.326,-0.540,0.000,0.000,0.264,0.189,2,0,0,0,7,255,0,250,0,0
prep,1566,1566,0,121632.411,-0.148,-0.096,0.061,0.982,3148,205,1520,3113,4095,1354,780,1453,38,0.000,26,1,28.974,0.440,-3.700,-6.380,-28.020,-0.219,0.025,0.987,0.300,0.322,-0.136,0.000,0.000,0.264,0.189,2,0,0,0,7,255,0,250,0,0
prep,1566,1566,0,121637.411,-0.149,-0.096,0.061,0.982,3151,206,1548,3110,4095,1358,820,1452,38,0.000,26,1,28.866,0.309,-4.480,-4.620,-28.140,-0.202,0.024,0.985,0.154,0.268,0.024,0.000,0.000,0.264,0.189,2,0,0,0,7,255,0,250,0,0
prep,1582,1582,0,121642.411,-0.151,-0.096,0.060,0.982,3133,228,1566,3093,4095,1355,797,1453,38,0.000,26,1,30.034,0.268,-8.220,-7.780,-27.820,-0.194,0.011,1.007,0.002,0.268,0.080,0.000,0.000,0.264,0.189,2,0,0,0,7,255,0,250,0,0
prep,1582,1582,0,121647.411,-0.152,-0.096,0.059,0.982,3127,231,1605,3109,4095,1371,811,1483,38,0.000,26,1,32.555,0.425,-14.680,-9.500,-27.460,-0.188,-0.021,1.013,-0.034,0.424,0.212,0.000,0.000,0.264,0.189,2,0,0,0,7,255,0,250,0,0
prep,1582,1582,0,121652.413,-0.153,-0.096,0.057,0.982,3111,236,1625,3087,4095,1367,841,1487,38,0.000,26,1,32.812,0.711,-18.640,-8.100,-25.760,-0.179,-0.037,0.982,-0.034,0.710,0.212,0.000,0.000,0.264,0.189,2,0,0,0,7,255,0,250,0,0
prep,1582,1582,0,121657.411,-0.154,-0.095,0.056,0.982,3094,267,1638,3080,4095,1371,830,1492,38,0.000,26,1,30.363,0.710,-16.880,-8.400,-23.800,-0.187,-0.030,0.943,-0.022,0.710,-0.094,0.000,0.000,0.264,0.189,2,0,0,0,7,255,0,250,0,0
prep,1582,1582,0,121662.411,-0.155,-0.095,0.055,0.982,3087,283,1661,3064,4095,1372,838,1496,38,0.000,26,1,27.197,0.640,-11.260,-8.640,-23.200,-0.191,-0.007,0.935,0.074,0.636,-0.440,0.000,0.000,0.264,0.189,2,0,0,0,7,255,0,250,0,0
prep,1582,1582,0,121667.411,-0.156,-0.095,0.054,0.982,3075,279,1684,3052,4095,1368,848,1502,38,0.000,26,1,25.711,0.383,-6.020,-8.520,-23.500,-0.191,-0.001,0.955,0.074,0.376,-0.440,0.000,0.000,0.264,0.189,2,0,0,0,7,255,0,250,0,0
prep,1599,1599,0,121672.411,-0.157,-0.095,0.053,0.982,3032,281,1702,3037,4095,1366,851,1501,38,0.000,26,1,24.766,0.377,-4.000,-8.100,-23.060,-0.185,-0.010,0.977,0.026,0.376,-0.290,0.000,0.000,0.264,0.189,2,0,0,0,7,255,0,250,0,0
prep,1599,1599,0,121677.411,-0.158,-0.095,0.052,0.982,3025,282,1735,3029,4095,1373,866,1507,38,0.000,26,1,23.059,0.426,-4.620,-7.860,-21.180,-0.181,-0.017,0.989,-0.036,0.424,-0.094,0.000,0.000,0.264,0.189,2,0,0,0,7,255,0,250,0,0
prep,1614,1614,0,121682.411,-0.158,-0.094,0.051,0.982,3003,283,1752,3024,4095,1369,911,1510,38,0.000,26,1,21.531,0.437,-7.420,-8.580,-18.300,-0.191,-0.015,1.001,-0.036,0.436,0.018,0.000,0.000,0.264,0.189,2,0,0,0,7,255,0,250,0,0
prep,1614,1614,0,121687.411,-0.159,-0.094,0.050,0.981,2993,281,1779,3012,4095,1371,890,1520,38,0.000,26,1,21.390,0.436,-8.940,-8.280,-17.580,-0.208,-0.010,0.983,0.000,0.436,0.018,0.000,0.000,0.264,0.189,2,0,0,0,7,255,0,250,0,0
prep,1614,1614,0,121692.411,-0.160,-0.094,0.050,0.981,2939,293,1784,2991,4095,1366,922,1531,38,0.000,26,0,22.310,0.292,-11.320,-8.940,-17.020,-0.194,0.005,1.005,0.000,0.292,0.150,0.000,0.000,0.264,0.189,3,0,0,0,7,255,0,250,0,0
prep,1614,1614,0,121697.411,-0.160,-0.094,0.049,0.981,2927,291,1808,2983,4095,1368,940,1545,38,0.000,26,0,23.366,0.200,-14.560,-9.080,-15.860,-0.198,0.004,1.000,0.004,0.200,0.172,0.000,0.000,0.264,0.189,3,0,0,0,7,255,0,250,0,0
prep,1662,1662,0,121702.411,-0.161,-0.094,0.048,0.981,2899,299,1823,2961,4095,1357,950,1541,38,0.000,26,0,24.751,0.200,-16.640,-9.380,-15.740,-0.201,-0.010,0.986,0.004,0.200,0.172,0.000,0.000,0.264,0.189,3,0,0,0,7,255,0,250,0,0
prep,1662,1662,0,121707.411,-0.162,-0.093,0.047,0.981,2872,291,1851,2943,4095,1367,955,1544,38,0.000,26,0,23.698,0.278,-15.540,-9.140,-15.380,-0.211,-0.038,0.941,0.104,0.258,0.036,0.000,0.000,0.264,0.189,3,0,0,0,7,255,0,250,0,0
prep,1662,1662,0,121712.411,-0.162,-0.093,0.046,0.981,2821,293,1868,2933,4095,1363,967,1553,38,0.000,26,0,21.079,0.549,-5.960,-9.440,-17.880,-0.229,-0.049,0.908,0.358,0.416,-0.390,0.000,0.000,0.264,0.189,3,0,0,0,7,255,0,250,0,0
prep,1662,1662,0,121717.411,-0.163,-0.093,0.046,0.981,2803,288,1876,2912,4095,1349,972,1561,38,0.000,26,0,24.066,0.549,0.460,-10.960,-21.420,-0.214,-0.037,0.975,0.358,0.416,-0.390,0.000,0.000,0.264,0.189,3,0,0,0,7,255,0,250,0,0
prep,1678,1678,0,121722.411,-0.164,-0.092,0.046,0.981,2763,275,1891,2901,4095,1357,989,1561,38,0.000,26,0,23.267,0.536,-0.220,-10.660,-20.680,-0.185,-0.025,1.016,0.330,0.422,-0.060,0.000,0.000,0.264,0.189,3,0,0,0,7,255,0,250,0,0
prep,1678,1678,0,121727.411,-0.165,-0.092,0.045,0.981,2717,279,1912,2863,4095,1363,1011,1562,38,0.000,26,0,20.884,0.413,-5.280,-11.520,-16.600,-0.184,-0.015,1.028,-0.030,0.412,0.282,0.000,0.000,0.264,0.189,3,0,0,0,7,255,0,250,0,0
prep,1678,1678,0,121732.411,-0.166,-0.092,0.044,0.981,2644,288,1933,2841,4095,1377,1019,1575,38,0.000,26,0,20.259,0.337,-10.040,-12.180,-12.700,-0.196,-0.004,1.022,-0.030,0.336,0.376,0.000,0.000,0.264,0.189,3,0,0,0,7,255,0,250,0,0
prep,1678,1678,0,121737.411,-0.166,-0.091,0.044,0.981,2611,266,1953,2809,4095,1364,1047,1581,38,0.000,26,0,21.582,0.180,-12.920,-12.540,-11.900,-0.206,0.002,1.005,0.006,0.180,0.376,0.000,0.000,0.264,0.189,3,0,0,0,7,255,0,250,0,0
prep,1678,1678,0,121742.411,-0.167,-0.091,0.043,0.981,2534,273,1959,2776,4095,1363,1055,1589,38,0.000,26,0,23.993,0.116,-14.860,-13.280,-13.360,-0.215,-0.001,1.007,0.104,0.052,0.272,0.000,0.000,0.264,0.189,3,0,0,0,7,255,0,250,0,0
prep,1678,1678,0,121747.411,-0.167,-0.090,0.042,0.981,2455,283,1965,2740,4095,1349,1056,1619,38,0.000,26,0,26.710,0.146,-17.000,-13.640,-15.440,-0.203,-0.011,1.005,0.136,0.052,0.238,0.000,0.000,0.264,0.189,3,0,0,0,7,255,0,250,0,0
prep,1678,1678,0,121752.411,-0.168,-0.090,0.041,0.981,2349,253,1999,2707,4095,1349,1087,1597,38,0.000,26,0,28.588,0.198,-19.020,-14.080,-16.040,-0.188,-0.028,0.997,0.136,0.144,0.228,0.000,0.000,0.264,0.189,3,0,0,0,7,255,0,250,0,0
prep,1678,1678,0,121757.411,-0.168,-0.090,0.040,0.981,2259,253,2008,2654,4095,1340,1107,1599,38,0.000,26,0,27.972,0.320,-19.680,-13.640,-14.460,-0.174,-0.032,0.983,0.070,0.312,0.116,0.000,0.000,0.264,0.189,3,0,0,0,7,255,0,250,0,0
prep,1694,1694,0,121762.411,-0.169,-0.089,0.038,0.981,2155,263,2011,2595,4095,1331,1127,1605,38,0.000,26,0,28.018,0.346,-20.480,-14.020,-13.000,-0.173,-0.034,0.974,-0.002,0.346,-0.046,0.000,0.000,0.264,0.189,3,0,0,0,7,255,0,250,0,0
prep,1694,1694,0,121767.411,-0.169,-0.089,0.037,0.981,2021,247,2029,2549,4095,1333,1145,1608,38,0.000,26,0,25.684,0.346,-18.100,-14.200,-11.420,-0.208,-0.036,0.982,-0.002,0.346,-0.046,0.000,0.000,0.264,0.189,3,0,0,0,7,255,0,250,0,0
prep,1694,1694,0,121772.411,-0.170,-0.088,0.036,0.981,1881,235,2040,2485,4095,1325,1122,1613,38,0.000,26,0,25.506,0.392,-16.580,-15.660,-11.420,-0.215,-0.014,0.980,0.316,0.232,0.012,0.000,0.000,0.264,0.189,3,0,0,0,7,255,0,250,0,0
prep,1694,1694,0,121777.411,-0.170,-0.088,0.035,0.981,1727,229,2063,2413,4095,1323,1165,1623,38,0.000,26,0,26.595,0.316,-16.020,-16.080,-13.860,-0.221,-0.016,1.003,0.316,-0.012,0.014,0.000,0.000,0.264,0.189,3,0,0,0,7,255,0,250,0,0
prep,1710,1710,0,121782.411,-0.171,-0.087,0.034,0.981,1555,187,2067,2341,4095,1321,1169,1635,38,0.000,26,0,28.707,0.317,-17.620,-15.300,-16.720,-0.216,-0.011,1.018,0.316,-0.018,0.244,0.000,0.000,0.264,0.189,3,0,0,0,7,255,0,250,0,0
prep,1710,1710,0,121787.411,-0.172,-0.087,0.033,0.981,1337,189,2080,2236,4095,1311,1195,1651,38,0.000,26,0,31.688,0.289,-19.320,-16.520,-18.920,-0.209,-0.026,0.998,0.288,-0.018,0.244,0.000,0.000,0.264,0.189,3,0,0,0,7,255,0,250,0,0
prep,1727,1727,0,121792.411,-0.173,-0.086,0.032,0.981,1179,187,2091,2132,4095,1303,1151,1629,38,0.000,26,0,31.609,0.296,-16.460,-18.160,-19.960,-0.227,-0.055,0.959,0.288,0.068,0.170,0.000,0.000,0.264,0.189,3,0,0,0,7,255,0,250,0,0
prep,1727,1727,0,121797.413,-0.173,-0.086,0.031,0.981,985,171,2122,2003,4095,1299,1161,1635,38,0.000,26,0,30.807,0.647,-8.700,-19.620,-22.100,-0.224,-0.063,0.968,0.608,0.220,-0.100,0.000,0.000,0.264,0.189,3,0,0,0,7,255,0,250,0,0
prep,1758,1758,0,121802.411,-0.174,-0.085,0.031,0.981,808,151,2135,1849,4095,1280,1194,1637,38,0.000,26,0,31.117,0.647,-9.060,-21.100,-21.000,-0.191,-0.007,1.063,0.608,0.220,-0.100,0.000,0.000,0.264,0.189,3,0,0,0,7,255,0,250,0,0
prep,1758,1758,0,121807.411,-0.175,-0.084,0.030,0.980,648,156,2149,1703,4095,1275,1193,1637,38,0.000,26,0,36.749,0.433,-16.400,-20.060,-26.060,-0.257,0.042,1.064,0.428,-0.066,0.772,0.000,0.000,0.264,0.189,3,0,0,0,7,255,0,250,0,0
prep,1758,1758,0,121812.411,-0.177,-0.084,0.029,0.980,517,152,2159,1517,4095,1261,1215,1615,38,0.000,26,0,45.401,0.428,-24.380,-22.980,-30.640,-0.209,0.017,1.046,0.122,-0.410,0.772,0.000,0.000,0.264,0.189,3,0,0,0,7,255,0,250,0,0
prep,1758,1758,0,121817.411,-0.178,-0.083,0.027,0.980,330,140,2165,1285,4095,1243,1205,1627,38,0.000,26,0,45.018,0.593,-19.080,-22.140,-34.240,-0.196,-0.067,0.919,0.428,-0.410,0.646,0.000,0.000,0.264,0.189,3,0,0,0,7,255,0,250,0,0
prep,1758,1758,0,121822.411,-0.180,-0.082,0.027,0.980,179,140,2184,1062,4095,1227,1239,1628,38,0.000,26,0,42.421,0.423,-4.180,-25.920,-33.320,-0.159,-0.105,0.909,0.312,0.286,-0.620,0.000,0.000,0.264,0.189,3,0,0,0,7,255,0,250,0,0
prep,1758,1758,0,121827.411,-0.181,-0.081,0.027,0.980,127,132,2205,854,4095,1215,1256,1621,38,0.000,26,0,37.556,0.743,9.680,-26.840,-24.420,-0.118,-0.078,0.991,0.312,0.674,-0.620,0.000,0.000,0.264,0.189,3,0,0,0,7,255,0,250,0,0
prep,1774,1774,0,121832.411,-0.181,-0.079,0.027,0.980,69,123,2208,669,4095,1190,1259,1643,38,0.000,26,0,34.790,0.674,14.680,-28.600,-13.300,-0.202,0.020,1.146,-0.018,0.674,-0.048,0.000,0.000,0.264,0.189,3,0,0,0,7,255,0,250,0,0
prep,1774,1774,0,121837.411,-0.182,-0.078,0.027,0.980,28,137,2219,499,4095,1141,1269,1641,38,0.000,26,0,33.198,0.364,12.480,-29.820,-7.560,-0.209,0.019,1.228,-0.034,-0.362,1.596,0.000,0.000,0.264,0.189,3,0,0,0,7,255,0,250,0,0
prep,1774,1774,0,121842.411,-0.181,-0.076,0.028,0.980,0,134,2230,407,4095,1117,1287,1659,38,0.000,26,0,43.858,0.400,21.460,-36.100,12.640,-0.231,0.018,1.254,-0.018,-0.400,2.402,0.000,0.000,0.264,0.189,3,0,0,0,7,255,0,250,0,0
prep,1774,1774,0,121847.411,-0.180,-0.075,0.028,0.980,0,104,2223,349,4095,1083,1299,1675,38,0.000,26,0,45.168,0.440,-2.040,-40.880,19.100,-0.278,0.099,1.313,0.184,-0.400,2.690,0.000,0.000,0.264,0.189,3,0,0,0,7,255,0,250,0,0
prep,1790,1790,0,121852.411,-0.180,-0.073,0.026,0.981,0,97,2240,291,4095,1063,1304,1693,38,0.000,26,0,48.780,0.493,-22.920,-40.080,15.740,-0.388,-0.064,1.286,0.288,-0.400,3.206,0.000,0.000,0.264,0.189,3,0,0,0,7,255,0,250,0,0
prep,1790,1790,0,121857.411,-0.179,-0.071,0.025,0.981,0,89,2221,229,4095,983,1327,1679,38,0.000,26,0,56.619,1.440,-33.000,-44.220,12.700,-0.268,-0.166,1.121,1.424,-0.214,3.206,0.000,0.000,0.264,0.189,3,0,0,0,7,255,0,250,0,0
prep,1790,1790,0,121862.411,-0.179,-0.070,0.022,0.981,0,73,2239,200,4095,957,1342,1689,38,0.000,26,0,70.454,2.161,-51.360,-47.580,-7.880,-0.255,-0.375,0.927,1.926,0.980,1.412,0.000,0.000,0.264,0.189,3,0,0,0,7,255,0,250,0,0
prep,1790,1790,0,121867.411,-0.180,-0.068,0.021,0.981,0,58,2234,180,4095,916,1377,1675,38,0.000,26,0,55.242,2.683,-22.060,-50.340,-5.560,-0.253,-0.271,0.866,2.030,1.754,-0.502,0.000,0.000,0.264,0.189,3,0,0,0,7,255,0,250,0,0
prep,1790,1790,0,121872.411,-0.180,-0.065,0.020,0.981,0,56,2257,147,4095,867,1389,1673,38,0.000,26,0,55.774,2.683,7.360,-55.280,-0.800,-0.203,-0.071,0.958,2.030,1.754,-0.502,0.000,0.000,0.264,0.189,3,0,0,0,7,255,0,250,0,0
prep,1790,1790,0,121877.411,-0.180,-0.063,0.020,0.981,0,38,2248,93,4095,822,1407,1659,38,0.000,26,0,57.718,0.821,8.700,-57.040,-1.460,-0.237,0.076,1.157,0.810,0.134,-0.252,0.000,0.000,0.264,0.189,3,0,0,0,7,255,0,250,0,0
prep,1806,1806,0,121882.411,-0.180,-0.060,0.020,0.982,0,26,2237,55,4095,768,1399,1643,38,0.000,26,0,59.086,1.400,-3.820,-58.760,-4.880,-0.261,0.081,1.199,0.646,-1.242,1.734,0.000,0.000,0.264,0.189,3,0,0,0,7,255,0,250,0,0
prep,1806,1806,0,121887.411,-0.180,-0.058,0.019,0.982,0,5,2245,39,4095,728,1435,1629,38,0.000,26,0,63.197,1.400,-13.640,-61.440,-5.740,-0.209,-0.069,1.151,0.646,-1.242,1.734,0.000,0.000,0.264,0.189,3,0,0,0,7,255,0,250,0,0
prep,1822,1822,0,121892.411,-0.180,-0.055,0.017,0.982,0,0,2249,29,4095,670,1443,1631,38,0.000,26,0,68.273,0.810,-18.220,-65.720,3.180,-0.178,-0.208,1.153,0.802,0.112,1.632,0.000,0.000,0.264,0.189,3,0,0,0,7,255,0,250,0,0
prep,1822,1822,0,121897.411,-0.180,-0.053,0.016,0.982,0,0,2245,26,4095,589,1440,1622,38,0.000,26,0,62.242,1.784,-21.100,-57.420,11.480,-0.211,-0.224,1.124,1.048,1.444,1.602,0.000,0.000,0.264,0.189,3,0,0,0,7,255,0,250,0,0
prep,1854,1854,0,121902.411,-0.179,-0.050,0.014,0.982,0,0,2246,19,4095,547,1445,1603,38,0.000,26,0,70.648,2.066,-25.600,-65.580,5.920,-0.335,-0.123,1.079,1.478,1.444,1.356,0.000,0.000,0.264,0.189,3,0,0,0,7,255,0,250,0,0
prep,1854,1854,0,121907.411,-0.180,-0.047,0.013,0.983,0,0,2235,10,4095,466,1460,1561,38,0.000,26,0,79.704,2.161,-19.320,-76.820,-8.840,-0.293,-0.141,1.013,2.144,0.270,1.032,0.000,0.000,0.264,0.189,3,0,0,0,7,255,0,250,0,0
prep,1854,1854,0,121912.411,-0.180,-0.044,0.012,0.983,0,0,2231,4,1211,409,1455,1553,38,0.000,26,0,78.234,2.161,0.460,-77.500,-10.680,-0.178,-0.195,0.974,2.144,0.270,0.342,0.000,0.000,0.264,0.189,3,0,0,0,7,255,0,250,0,0
prep,1854,1854,0,121917.411,-0.180,-0.040,0.012,0.983,0,0,2221,0,1229,352,1469,1525,38,0.000,26,0,83.231,1.470,15.100,-81.820,-2.200,-0.176,-0.132,0.872,1.376,0.516,-0.148,0.000,0.000,0.264,0.189,3,0,0,0,7,255,0,250,0,0
prep,1854,1854,0,121922.411,-0.180,-0.036,0.014,0.983,0,0,2227,0,1261,317,1471,1503,38,0.000,26,0,114.857,1.470,57.280,-99.520,2.620,-0.195,-0.137,0.791,1.376,0.516,-1.156,0.000,0.000,0.264,0.189,3,0,0,0,7,255,0,250,0,0
prep,1854,1854,0,121927.411,-0.180,-0.031,0.017,0.983,0,0,2206,0,1275,271,1499,1472,38,0.000,26,0,137.800,1.368,96.880,-97.760,6.780,-0.152,-0.086,0.995,1.278,0.488,-1.156,0.000,0.000,0.264,0.189,3,0,0,0,7,255,0,250,0,0
prep,1877,1877,0,121932.411,-0.180,-0.026,0.021,0.983,0,0,2212,0,1299,233,1497,1446,38,0.000,26,0,134.711,1.061,95.480,-94.880,5.320,-0.168,0.085,1.218,1.024,0.276,0.004,0.000,0.000,0.264,0.189,3,0,0,0,7,255,0,250,0,0
prep,1877,1877,0,121937.411,-0.180,-0.021,0.023,0.983,0,0,2203,0,1307,153,1501,1401,38,0.000,26,0,122.894,1.355,70.880,-100.380,1.660,-0.159,0.219,1.395,0.586,-1.222,2.212,0.000,0.000,0.264,0.189,3,0,0,0,7,255,0,250,0,0
prep,1877,1877,0,121942.411,-0.180,-0.017,0.023,0.983,0,0,2173,0,1315,125,1497,1365,38,0.000,26,0,101.579,2.315,22.680,-98.980,-2.620,-0.124,0.280,1.449,0.108,-2.312,3.968,0.000,0.000,0.264,0.189,3,0,0,0,7,255,0,250,0,0
prep,1877,1877,0,121947.411,-0.180,-0.013,0.021,0.983,0,0,2152,0,1707,105,1505,1330,38,0.000,26,0,99.337,2.322,-19.680,-97.260,-4.580,-0.096,0.208,1.375,-0.212,-2.312,3.968,0.000,0.000,0.264,0.189,3,0,0,0,7,255,0,250,0,0
prep,1878,1878,0,121952.411,-0.180,-0.009,0.019,0.983,0,0,2136,0,1391,85,1503,1288,38,0.000,26,0,106.137,2.095,-38.660,-98.800,3.000,-0.093,0.104,1.250,-0.212,-2.084,3.740,0.000,0.000,0.264,0.189,3,0,0,0,7,255,0,250,0,0
prep,1878,1878,0,121957.411,-0.180,-0.005,0.017,0.984,0,0,2133,0,1606,55,1492,1239,38,0.000,26,0,106.150,1.253,-37.940,-98.800,8.180,-0.123,0.046,1.204,0.228,-1.232,2.474,0.000,0.000,0.264,0.189,3,0,0,0,7,255,0,250,0,0
prep,1886,1886,0,121962.411,-0.179,-0.001,0.014,0.984,0,0,2117,0,1926,51,1507,1195,38,0.000,26,0,103.913,1.193,-30.680,-98.300,13.920,-0.182,-0.070,1.239,0.786,-0.898,2.322,0.000,0.000,0.264,0.189,3,0,0,0,7,255,0,250,0,0
prep,1886,1886,0,121967.411,-0.179,0.003,0.012,0.984,0,0,2080,0,4095,39,1510,1146,38,0.000,26,0,106.109,1.825,-27.920,-101.180,15.560,-0.259,-0.135,1.310,1.822,-0.096,2.322,0.000,0.000,0.264,0.189,3,0,0,0,7,255,0,250,0,0
prep,1903,1903,0,121972.411,-0.178,0.008,0.011,0.984,0,0,2035,0,1362,27,1502,1107,38,0.000,26,0,109.135,2.850,-14.260,-107.160,14.960,-0.346,-0.130,1.402,2.848,-0.096,2.986,0.000,0.000,0.264,0.189,3,0,0,0,7,255,0,250,0,0
prep,1903,1903,0,121977.411,-0.177,0.012,0.009,0.984,0,0,2013,0,1739,26,1501,1049,38,0.000,26,0,116.595,3.760,-23.100,-112.580,19.660,-0.382,-0.110,1.507,3.754,-0.212,3.852,0.000,0.000,0.264,0.189,3,0,0,0,7,255,0,250,0,0
prep,1903,1903,0,121982.411,-0.177,0.017,0.007,0.984,0,0,1972,0,1898,17,1497,983,38,0.000,26,0,121.853,4.207,-21.400,-119.060,14.660,-0.455,-0.009,1.523,4.166,-0.586,4.840,0.000,0.000,0.264,0.189,3,0,0,0,7,255,0,250,0,0
prep,1903,1903,0,121987.411,-0.176,0.023,0.006,0.984,0,0,1941,0,4095,20,1491,907,38,0.000,26,0,138.390,4.980,0.880,-137.480,15.820,-0.526,0.095,1.561,4.628,-1.840,4.940,0.000,0.000,0.264,0.189,3,0,0,0,7,255,0,250,0,0
prep,1918,1918,0,121992.411,-0.175,0.030,0.005,0.984,0,0,1893,0,4095,18,1479,815,38,0.000,26,0,149.857,5.920,6.140,-148.660,17.880,-0.556,0.064,1.662,5.116,-2.978,5.222,0.000,0.000,0.264,0.189,3,0,0,0,7,255,0,250,0,0
prep,1918,1918,0,121997.413,-0.175,0.036,0.004,0.984,0,0,1831,0,1357,9,1459,734,38,0.000,26,0,154.795,6.043,-2.900,-153.780,17.460,-0.503,0.167,1.762,5.192,-3.092,6.112,0.000,0.000,0.264,0.189,3,0,0,0,7,255,0,250,0,0
prep,1951,1951,0,122002.411,-0.174,0.043,0.002,0.984,0,0,1769,0,1311,9,1459,645,38,0.000,26,0,161.111,6.452,-15.840,-160.140,7.820,-0.478,0.317,1.817,5.192,-3.830,7.048,0.000,0.000,0.264,0.189,3,0,0,0,7,255,0,250,0,0
prep,1951,1951,0,122007.411,-0.174,0.050,-0.001,0.983,0,0,1673,0,1292,16,1403,575,38,0.000,26,0,182.905,7.054,-29.020,-180.400,8.240,-0.466,0.483,1.804,4.718,-5.244,7.316,0.000,0.000,0.264,0.189,3,0,0,0,7,255,0,250,0,0
prep,1951,1951,0,122012.411,-0.173,0.059,-0.004,0.983,0,0,1587,0,1215,9,1386,515,38,0.000,26,0,210.451,8.329,-46.120,-204.500,18.500,-0.526,0.608,1.889,4.718,-6.864,7.532,0.000,0.000,0.264,0.189,3,0,0,0,7,255,0,250,0,0
prep,1951,1951,0,122017.411,-0.172,0.068,-0.009,0.983,0,0,1477,0,1121,6,1341,453,38,0.000,26,0,241.606,9.678,-61.380,-232.400,24.420,-0.612,0.748,1.940,4.776,-8.418,7.936,0.000,0.000,0.264,0.189,3,0,0,0,7,255,0,250,0,0
prep,1966,1966,0,122022.411,-0.172,0.079,-0.014,0.982,0,0,1405,0,1045,16,1303,403,38,0.000,26,0,267.227,11.597,-77.060,-255.780,6.960,-0.603,0.771,1.969,5.470,-10.226,8.120,0.000,0.000,0.264,0.189,3,0,0,0,7,255,0,250,0,0
prep,1966,1966,0,122027.411,-0.173,0.089,-0.020,0.981,0,0,1287,0,966,9,1256,355,38,0.000,26,0,275.936,11.655,-85.600,-261.640,-18.920,-0.506,0.636,1.980,5.592,-10.226,8.164,0.000,0.000,0.264,0.189,3,0,0,0,7,255,0,250,0,0
prep,1966,1966,0,122032.411,-0.174,0.100,-0.025,0.979,0,0,1193,0,906,12,1219,327,38,0.000,26,0,285.393,10.981,-88.420,-270.000,-27.040,-0.467,0.438,1.958,5.680,-9.398,8.164,0.000,0.000,0.264,0.189,3,0,0,0,7,255,0,250,0,0
prep,1966,1966,0,122037.411,-0.174,0.111,-0.032,0.978,0,0,1099,0,743,11,1161,298,38,0.000,26,0,297.503,9.897,-102.140,-279.400,-3.360,-0.492,0.269,1.918,6.200,-7.714,7.866,0.000,0.000,0.264,0.189,3,0,0,0,7,255,0,250,0,0
prep,1966,1966,0,122042.411,-0.174,0.123,-0.040,0.976,0,0,1005,0,635,10,1085,235,38,0.000,26,0,319.905,9.888,-126.320,-293.680,11.600,-0.552,0.240,1.886,7.252,-6.722,7.236,0.000,0.000,0.264,0.189,3,0,0,0,7,255,0,250,0,0
prep,1966,1966,0,122047.411,-0.173,0.134,-0.048,0.974,0,0,911,0,531,8,1015,219,38,0.000,26,0,330.295,10.569,-137.480,-300.020,13.500,-0.644,0.221,1.856,8.156,-6.722,6.514,0.000,0.000,0.264,0.189,3,0,0,0,7,255,0,250,0,0
prep,1982,1982,0,122052.412,-0.173,0.146,-0.057,0.972,0,0,832,0,429,16,963,203,38,0.000,26,0,336.352,11.457,-148.420,-301.800,4.580,-0.628,0.144,1.802,9.278,-6.722,5.678,0.000,0.000,0.264,0.189,3,0,0,0,7,255,0,250,0,0
prep,1982,1982,0,122057.411,-0.174,0.158,-0.065,0.970,0,0,746,0,325,10,877,188,38,0.000,26,0,340.277,11.403,-151.760,-303.320,-27.460,-0.502,0.014,1.697,9.278,-6.630,4.930,0.000,0.000,0.264,0.189,3,0,0,0,7,255,0,250,0,0
prep,1998,1998,0,122062.411,-0.176,0.170,-0.073,0.967,0,0,666,0,201,7,812,213,38,0.000,26,0,346.718,10.321,-146.040,-310.760,-48.100,-0.342,-0.148,1.583,8.912,-5.206,4.138,0.000,0.000,0.264,0.189,3,0,0,0,7,255,0,250,0,0
prep,1998,1998,0,122067.411,-0.178,0.183,-0.081,0.963,0,0,561,0,181,11,727,203,38,0.000,26,0,360.995,8.713,-138.960,-330.420,-42.780,-0.217,-0.228,1.444,8.050,-3.334,3.518,0.000,0.000,0.264,0.189,3,0,0,0,7,255,0,250,0,0
