condition_phase,condition_phase_elapsed_ms,condition_elapsed_ms,is_stimulation_on,t_ms,R_q0,R_q1,R_q2,R_q3,R_heel1,R_mid1,R_fore1,R_heel2,R_fore3,R_mid2,R_fore4,R_fore2,R_cadence,R_speed,R_steps,R_zupt,R_gyroNorm,R_accH,R_gyro_x,R_gyro_y,R_gyro_z,R_acc_x,R_acc_y,R_acc_z,R_nav_ax,R_nav_ay,R_nav_az,R_stepVel,R_stepVelj,R_stepDispRaw,R_stepDispZUPT,R_gaitEvent,R_motorMode,R_motorActive,R_motorAlignment,R_motorRegionMask,R_motorAmplitude,R_motorIntervalMs,R_motorDurationMs,R_motorPhaseMs,R_motorCycleMs
stim,47,47,0,61466.369,0.997,0.049,0.033,0.056,2713,0,581,3303,182,0,555,2877,42,0.000,4,1,20.486,1.939,-5.540,19.700,-0.940,-0.171,0.107,1.015,-0.064,1.938,-0.270,0.000,0.000,0.000,0.000,2,0,0,0,7,255,0,250,0,0
stim,47,47,0,61471.369,0.997,0.048,0.033,0.056,2709,0,633,3302,165,0,551,2839,42,0.000,4,1,20.576,1.932,-8.340,18.740,-1.620,-0.164,0.126,1.021,0.006,1.932,-0.270,0.000,0.000,0.000,0.000,2,0,0,0,7,255,0,250,0,0
stim,47,47,0,61476.369,0.997,0.047,0.032,0.057,2712,0,634,3303,159,0,551,2825,42,0.000,4,1,20.006,1.932,-8.100,18.000,-3.260,-0.173,0.133,1.018,-0.022,1.932,-0.254,0.000,0.000,0.000,0.000,2,0,0,0,7,255,0,250,0,0
stim,47,47,0,61481.369,0.997,0.046,0.031,0.057,2708,0,652,3305,167,0,551,2873,42,0.000,4,1,19.441,1.932,-9.880,16.480,-2.960,-0.198,0.096,1.016,-0.022,1.932,-0.240,0.000,0.000,0.000,0.000,2,0,0,0,7,255,0,250,0,0
stim,63,63,0,61486.369,0.997,0.046,0.030,0.057,2717,0,635,3303,153,0,552,2871,42,0.000,4,1,20.832,1.714,-13.360,15.800,-2.420,-0.208,0.104,1.035,-0.284,1.690,-0.192,0.000,0.000,0.000,0.000,2,0,0,0,7,255,0,250,0,0
stim,63,63,0,61491.370,0.997,0.045,0.029,0.057,2713,0,591,3301,112,0,544,2841,42,0.000,4,1,18.400,1.658,-10.860,14.820,1.000,-0.231,0.098,1.040,-0.322,1.626,0.002,0.000,0.000,0.000,0.000,2,0,0,0,7,255,0,250,0,0
stim,63,63,0,61496.369,0.997,0.045,0.028,0.057,2723,0,615,3311,113,0,537,2798,42,0.000,4,1,17.734,1.660,-11.100,13.000,4.720,-0.216,0.098,1.048,-0.336,1.626,0.090,0.000,0.000,0.000,0.000,2,0,0,0,7,255,0,250,0,0
stim,63,63,0,61501.369,0.997,0.044,0.027,0.057,2715,0,655,3287,109,0,534,2787,42,0.000,4,1,17.394,1.625,-9.440,12.440,7.660,-0.220,0.096,1.044,-0.370,1.582,0.118,0.000,0.000,0.000,0.000,2,0,0,0,7,255,0,250,0,0
stim,80,80,0,61506.371,0.997,0.043,0.027,0.056,2713,0,636,3305,143,0,525,2733,42,0.000,4,1,17.437,1.570,-8.900,11.400,9.740,-0.181,0.078,1.028,-0.336,1.534,0.118,0.000,0.000,0.000,0.000,2,0,0,0,7,255,0,250,0,0
stim,80,80,0,61511.369,0.997,0.043,0.026,0.056,2717,0,593,3297,125,0,500,2761,42,0.000,4,1,16.328,1.305,-12.140,9.200,5.880,-0.205,0.051,1.021,-0.284,1.274,-0.072,0.000,0.000,0.000,0.000,2,0,0,0,7,255,0,250,0,0
stim,80,80,0,61516.369,0.997,0.042,0.026,0.056,2717,0,581,3295,81,0,491,2691,42,0.000,4,1,18.721,1.112,-12.380,9.940,9.920,-0.174,0.065,1.043,-0.028,1.112,-0.072,0.000,0.000,0.000,0.000,2,0,0,0,7,255,0,250,0,0
stim,80,80,0,61521.369,0.997,0.042,0.025,0.056,2717,0,624,3296,31,0,487,2641,42,0.000,4,1,16.671,1.050,-14.260,6.640,5.520,-0.207,0.039,1.032,-0.274,1.014,0.044,0.000,0.000,0.000,0.000,2,0,0,0,7,255,0,250,0,0
stim,83,83,0,61526.369,0.997,0.042,0.025,0.055,2730,0,586,3292,44,0,486,2655,42,0.000,4,1,19.991,0.998,-11.460,7.620,14.500,-0.162,0.057,1.062,0.070,0.996,0.074,0.000,0.000,0.000,0.000,2,0,0,0,7,255,0,250,0,0
stim,83,83,0,61531.369,0.997,0.041,0.025,0.055,2718,0,602,3294,47,0,496,2664,42,0.000,4,1,15.570,0.873,-10.600,5.180,10.160,-0.181,0.006,1.021,-0.072,0.870,0.044,0.000,0.000,0.000,0.000,2,0,0,0,7,255,0,250,0,0
stim,83,83,0,61536.369,0.997,0.041,0.025,0.054,2721,0,629,3303,67,0,489,2624,42,0.000,4,1,18.654,0.633,-10.800,5.800,14.060,-0.120,0.025,1.036,0.224,0.592,-0.044,0.000,0.000,0.000,0.000,2,0,0,0,7,255,0,250,0,0
stim,83,83,0,61541.369,0.997,0.041,0.024,0.054,2723,0,635,3290,55,0,468,2617,42,0.000,4,1,15.637,0.484,-11.640,4.200,9.560,-0.166,-0.034,1.010,0.006,0.484,-0.082,0.000,0.000,0.000,0.000,2,0,0,0,7,255,0,250,0,0
stim,84,84,0,61546.369,0.997,0.041,0.024,0.053,2729,0,622,3301,109,0,461,2599,42,0.000,4,1,16.023,0.705,-13.540,4.580,7.240,-0.118,0.012,1.029,0.538,0.456,-0.100,0.000,0.000,0.000,0.000,2,0,0,0,7,255,0,250,0,0
stim,84,84,0,61551.369,0.997,0.041,0.024,0.053,2723,0,587,3290,109,0,455,2619,42,0.000,4,1,17.382,0.074,-13.180,3.100,10.900,-0.166,-0.038,1.033,0.040,0.062,-0.100,0.000,0.000,0.000,0.000,2,0,0,0,7,255,0,250,0,0
stim,90,90,0,61556.369,0.997,0.041,0.024,0.052,2725,0,589,3304,103,0,467,2559,42,0.000,4,1,12.583,0.353,-10.980,3.340,5.160,-0.139,-0.019,1.028,0.306,0.176,-0.052,0.000,0.000,0.000,0.000,2,0,0,0,7,255,0,250,0,0
stim,90,90,0,61561.370,0.998,0.041,0.024,0.052,2720,0,589,3303,103,0,468,2708,42,0.000,4,1,17.804,0.307,-12.800,2.500,12.120,-0.135,-0.037,1.040,0.306,0.028,0.054,0.000,0.000,0.000,0.000,2,0,0,0,7,255,0,250,0,0
stim,111,111,0,61566.369,0.998,0.041,0.024,0.052,2720,0,585,3295,84,0,447,2823,42,0.000,4,1,12.110,0.306,-9.020,1.700,7.900,-0.145,-0.059,1.021,0.306,0.012,-0.052,0.000,0.000,0.000,0.000,2,0,0,0,7,255,0,250,0,0
stim,111,111,0,61571.369,0.998,0.041,0.025,0.051,2747,0,551,3309,75,0,461,2863,42,0.000,4,1,12.103,0.345,-10.540,2.060,5.580,-0.116,-0.041,1.029,0.342,-0.046,-0.054,0.000,0.000,0.000,0.000,2,0,0,0,7,255,0,250,0,0
stim,111,111,0,61576.370,0.998,0.041,0.025,0.051,2720,0,553,3303,53,0,447,2729,42,0.000,4,1,14.937,0.403,-12.740,0.540,7.780,-0.129,-0.054,1.050,0.376,-0.144,-0.054,0.000,0.000,0.000,0.000,2,0,0,0,7,255,0,250,0,0
stim,111,111,0,61581.369,0.998,0.042,0.025,0.051,2728,0,533,3303,47,0,461,2575,42,0.000,4,1,7.772,0.403,-7.380,0.420,2.400,-0.139,-0.063,1.039,0.376,-0.144,0.088,0.000,0.000,0.000,0.000,2,0,0,0,7,255,0,250,0,0
stim,64,64,0,61586.369,0.998,0.042,0.025,0.051,2727,0,541,3294,43,0,452,2485,42,0.000,4,1,7.873,0.333,-7.620,0.480,1.920,-0.138,-0.063,1.043,0.260,-0.208,0.128,0.000,0.000,0.000,0.000,2,2,0,1,7,255,1440,300,0,1440
stim,64,64,0,61591.369,0.998,0.042,0.025,0.050,2728,0,527,3295,0,0,457,2412,42,0.000,4,1,10.715,0.325,-9.820,-1.540,4.000,-0.148,-0.033,1.058,0.250,-0.208,0.128,0.000,0.000,0.000,0.000,2,2,0,1,7,255,1440,300,0,1440
stim,64,64,0,61596.369,0.998,0.041,0.025,0.050,2727,0,551,3303,0,0,436,2341,42,0.000,4,1,5.603,0.235,-4.440,-1.900,2.840,-0.159,-0.028,1.048,0.212,0.102,0.172,0.000,0.000,0.000,0.000,2,2,0,1,7,255,1440,300,3,1440
stim,64,64,0,61601.369,0.998,0.041,0.026,0.050,2720,0,533,3288,0,0,424,2295,42,0.000,4,1,4.725,0.137,-3.720,-2.020,2.100,-0.155,-0.040,1.035,0.092,0.102,0.172,0.000,0.000,0.000,0.000,2,2,0,1,7,255,1440,300,8,1440
stim,64,64,0,61606.371,0.998,0.041,0.026,0.050,2731,0,520,3305,0,0,423,2267,42,0.000,4,1,11.209,0.171,-10.000,-3.660,3.500,-0.158,-0.020,1.061,0.092,0.144,0.172,0.000,0.000,0.000,0.000,2,2,0,1,7,255,1440,300,13,1440
stim,64,64,0,61611.369,0.998,0.041,0.026,0.050,2732,0,551,3300,0,0,422,2266,42,0.000,4,1,11.351,0.250,-9.320,-3.920,5.160,-0.167,-0.006,1.094,0.094,0.232,0.288,0.000,0.000,0.000,0.000,2,2,0,1,7,255,1440,300,18,1440
stim,64,64,0,61616.369,0.998,0.041,0.026,0.049,2741,0,554,3303,0,0,425,2233,42,0.000,4,1,6.867,0.250,-2.300,-2.700,5.880,-0.181,-0.060,1.104,0.094,0.232,0.604,0.000,0.000,0.000,0.000,2,2,0,1,7,255,1440,300,23,1440
stim,64,64,0,61621.369,0.998,0.041,0.026,0.049,2741,0,550,3296,0,0,411,2221,42,0.000,4,1,6.316,0.136,0.260,-2.440,5.820,-0.208,-0.093,1.111,-0.082,-0.108,0.754,0.000,0.000,0.000,0.000,2,2,0,1,7,255,1440,300,28,1440
stim,64,64,0,61626.369,0.998,0.041,0.026,0.049,2734,0,533,3301,0,0,407,2203,42,0.000,4,1,9.660,0.374,1.780,-3.360,8.880,-0.240,-0.044,1.136,-0.358,-0.108,0.890,0.000,0.000,0.000,0.000,2,2,0,1,7,255,1440,300,33,1440
stim,64,64,0,61631.370,0.998,0.040,0.026,0.048,2732,0,491,3291,0,0,405,2216,42,0.000,4,1,20.180,0.587,9.660,-3.540,17.360,-0.251,0.013,1.148,-0.574,0.122,1.128,0.000,0.000,0.000,0.000,2,2,0,1,7,255,1440,300,38,1440
stim,64,64,0,61636.369,0.998,0.039,0.026,0.047,2741,0,503,3304,0,0,407,2248,42,0.000,4,1,33.268,0.785,18.560,-3.060,27.440,-0.232,0.006,1.125,-0.574,0.536,1.128,0.000,0.000,0.000,0.000,2,2,0,1,7,255,1440,300,43,1440
stim,64,64,0,61641.369,0.998,0.037,0.026,0.046,2739,0,532,3303,0,0,392,2368,42,0.000,4,1,39.466,0.708,21.080,-2.880,33.240,-0.203,-0.021,1.091,-0.462,0.536,0.948,0.000,0.000,0.000,0.000,2,2,0,1,7,255,1440,300,48,1440
stim,64,64,0,61646.369,0.998,0.036,0.026,0.045,2732,0,534,3295,0,0,361,2487,42,0.000,4,1,38.749,0.324,17.900,-2.700,34.260,-0.187,-0.016,1.092,-0.258,0.196,0.590,0.000,0.000,0.000,0.000,2,2,0,1,7,255,1440,300,53,1440
stim,64,64,0,61651.369,0.998,0.035,0.026,0.043,2735,0,439,3300,0,0,367,2659,42,0.000,4,1,38.101,0.219,16.680,-1.960,34.200,-0.190,-0.008,1.126,-0.098,0.196,0.590,0.000,0.000,0.000,0.000,2,2,0,1,7,255,1440,300,58,1440
stim,97,97,0,61656.369,0.998,0.034,0.026,0.042,2735,0,425,3295,0,0,338,2774,42,0.000,4,1,43.155,0.219,20.820,0.000,37.800,-0.213,-0.034,1.157,-0.098,0.196,0.888,0.000,0.000,0.000,0.000,2,2,0,1,7,255,1440,300,63,1440
stim,97,97,0,61661.369,0.998,0.032,0.026,0.040,2745,0,281,3309,0,0,319,2884,42,0.000,4,1,53.171,0.272,28.700,2.320,44.700,-0.235,-0.060,1.177,-0.270,0.034,1.228,0.000,0.000,0.000,0.000,2,2,0,1,7,255,1440,300,68,1440
stim,97,97,0,61666.369,0.998,0.030,0.026,0.038,2735,0,292,3295,0,0,307,2875,42,0.000,4,1,65.042,0.513,38.460,4.940,52.220,-0.255,-0.067,1.192,-0.462,-0.222,1.460,0.000,0.000,0.000,0.000,2,2,0,1,7,255,1440,300,73,1440
stim,97,97,0,61671.369,0.999,0.028,0.026,0.036,2745,0,333,3294,0,0,255,2876,42,0.000,4,1,75.905,0.703,46.640,6.960,59.480,-0.275,-0.065,1.203,-0.626,-0.320,1.628,0.000,0.000,0.000,0.000,2,2,0,1,7,255,1440,300,78,1440
stim,145,145,0,61676.369,0.999,0.025,0.025,0.034,2751,0,186,3298,0,0,231,2829,42,0.000,4,1,86.601,0.857,52.020,8.600,68.700,-0.296,-0.060,1.222,-0.792,-0.328,1.746,0.000,0.000,0.000,0.000,2,2,0,1,7,255,1440,300,83,1440
stim,145,145,0,61681.369,0.999,0.022,0.025,0.031,2745,0,212,3289,0,0,203,2855,42,0.000,4,1,101.626,0.945,59.160,9.700,82.060,-0.298,-0.044,1.252,-0.886,-0.328,1.942,0.000,0.000,0.000,0.000,2,2,0,1,7,255,1440,300,88,1440
stim,145,145,0,61686.369,0.999,0.018,0.024,0.027,2745,0,157,3290,0,0,191,2873,42,0.000,4,0,122.638,0.929,72.880,11.840,97.920,-0.275,-0.036,1.257,-0.886,-0.278,2.214,0.000,0.000,0.000,0.000,2,2,0,1,7,255,1440,300,93,1440
stim,145,145,0,61691.369,0.999,0.013,0.024,0.023,2733,0,139,3303,0,0,172,2901,42,0.000,4,0,142.946,0.700,90.520,14.340,109.700,-0.227,-0.037,1.215,-0.642,-0.278,2.214,0.000,0.000,0.000,0.000,2,2,0,1,7,255,1440,300,98,1440
stim,159,159,0,61696.369,1.000,0.007,0.023,0.019,2732,0,55,3295,0,0,196,2747,42,0.000,4,0,156.393,0.499,105.180,14.880,114.780,-0.179,-0.028,1.132,-0.232,-0.442,1.736,0.000,0.000,0.000,0.000,2,2,0,1,7,255,1440,300,103,1440
stim,159,159,0,61701.370,1.000,0.002,0.023,0.015,2738,0,27,3293,0,0,148,2581,42,0.000,4,0,158.361,0.539,109.140,14.700,113.800,-0.144,-0.019,1.026,0.116,-0.526,0.858,0.000,0.000,0.000,0.000,2,2,0,1,7,255,1440,300,108,1440
stim,159,159,0,61706.369,1.000,-0.004,0.022,0.012,2726,0,21,3305,0,0,91,2551,42,0.000,4,0,152.916,0.539,109.520,11.460,106.100,-0.147,0.032,0.920,0.116,-0.526,-0.230,0.000,0.000,0.000,0.000,2,2,0,1,7,255,1440,300,113,1440
stim,159,159,0,61711.369,1.000,-0.010,0.022,0.009,2739,0,5,3295,0,0,69,2541,42,0.000,4,0,144.379,0.210,115.120,4.880,87.000,-0.164,0.237,0.747,0.102,-0.184,-1.250,0.000,0.000,0.000,0.000,2,2,0,1,7,255,1440,300,118,1440
stim,159,159,0,61716.369,1.000,-0.015,0.022,0.006,2740,0,27,3291,0,0,48,2469,42,0.000,4,0,137.291,1.754,109.880,-8.420,81.880,-0.093,0.508,0.464,-0.078,1.752,-2.874,0.000,0.000,0.000,0.000,2,2,0,1,7,255,1440,300,123,1440
stim,159,159,0,61721.369,1.000,-0.018,0.023,0.003,2743,0,26,3291,0,0,48,2461,42,0.000,4,0,119.568,2.309,64.720,-15.080,99.400,-0.065,0.290,0.204,-0.292,2.290,-5.644,0.000,0.000,0.000,0.000,2,2,0,1,7,255,1440,300,128,1440
stim,159,159,0,61726.369,1.000,-0.019,0.024,-0.002,2739,0,28,3299,0,0,51,2449,42,0.000,4,0,96.388,2.296,-17.020,-8.180,94.520,-0.049,-0.183,0.186,-0.162,2.290,-8.230,0.000,0.000,0.000,0.000,2,2,0,1,7,255,1440,300,133,1440
stim,159,159,0,61731.369,1.000,-0.015,0.024,-0.005,2736,0,28,3299,0,0,49,2444,42,0.000,4,0,122.719,2.346,-102.580,-0.120,67.360,-0.075,-0.407,0.448,-0.162,-2.340,-8.230,0.000,0.000,0.000,0.000,2,2,0,1,7,255,1440,300,138,1440
stim,159,159,0,61736.369,1.000,-0.008,0.024,-0.009,2747,0,0,3298,0,0,46,2537,42,0.000,4,0,167.601,2.905,-159.540,-8.980,50.560,-0.193,-0.237,0.915,-0.162,-2.900,-6.018,0.000,0.000,0.000,0.000,2,2,0,1,7,255,1440,300,143,1440
stim,159,159,0,61741.369,1.000,-0.002,0.025,-0.012,2741,0,25,3300,0,0,51,2583,42,0.000,4,0,162.383,2.920,-152.520,-16.860,53.120,-0.316,-0.019,1.389,-0.344,-2.900,-1.242,0.000,0.000,0.000,0.000,2,2,0,1,7,255,1440,300,148,1440
stim,176,176,0,61746.369,1.000,0.001,0.025,-0.016,2742,0,29,3296,0,0,46,2586,42,0.000,4,0,111.023,2.154,-88.800,-10.020,65.880,-0.384,-0.167,1.574,-0.834,-1.986,3.556,0.000,0.000,0.000,0.000,2,2,0,1,7,255,1440,300,153,1440
stim,176,176,0,61751.369,0.999,0.001,0.026,-0.020,2747,0,7,3306,0,0,47,2566,42,0.000,4,0,87.286,2.301,-12.200,-7.760,86.080,-0.426,-0.337,1.473,-1.162,-1.986,4.578,0.000,0.000,0.000,0.000,2,2,0,1,7,255,1440,300,158,1440
stim,176,176,0,61756.369,0.999,-0.002,0.026,-0.024,2747,0,4,3308,0,0,43,2565,42,0.000,4,0,121.440,3.270,35.300,-14.720,115.260,-0.419,-0.234,1.144,-1.656,-2.820,4.578,0.000,0.000,0.000,0.000,2,2,0,1,7,255,1440,300,163,1440
stim,176,176,0,61761.369,0.999,-0.004,0.027,-0.030,2745,0,2,3299,0,0,40,2572,42,0.000,4,0,145.713,3.407,39.860,-14.720,139.380,-0.329,-0.047,0.792,-1.912,-2.820,1.362,0.000,0.000,0.000,0.000,2,2,0,1,7,255,1440,300,168,1440
stim,239,239,0,61766.369,0.999,-0.006,0.027,-0.036,2745,0,5,3300,0,0,47,2577,42,0.000,4,0,145.796,2.190,12.700,-9.660,144.920,-0.174,-0.038,0.644,-1.912,-1.068,-2.200,0.000,0.000,0.000,0.000,2,2,0,1,7,255,1440,300,173,1440
stim,239,239,0,61771.370,0.999,-0.006,0.028,-0.042,2757,0,8,3307,0,0,43,2604,42,0.000,4,0,133.278,1.252,-24.700,-11.540,130.460,-0.032,-0.170,0.659,-0.654,-1.068,-3.886,0.000,0.000,0.000,0.000,2,2,0,1,7,255,1440,300,178,1440
stim,239,239,0,61776.369,0.999,-0.005,0.028,-0.047,2763,0,2,3292,0,0,41,2605,42,0.000,4,0,112.807,2.271,-50.280,-12.220,100.240,0.021,-0.230,0.796,0.850,-2.106,-3.886,0.000,0.000,0.000,0.000,2,2,0,1,7,255,1440,300,183,1440
stim,239,239,0,61781.369,0.998,-0.003,0.029,-0.050,2759,0,0,3307,0,0,44,2649,42,0.000,4,0,87.834,2.466,-51.740,-10.740,70.160,-0.036,-0.173,0.964,1.282,-2.106,-2.708,0.000,0.000,0.000,0.000,2,2,0,1,7,255,1440,300,188,1440
stim,239,239,0,61786.370,0.998,-0.002,0.029,-0.053,2749,0,0,3301,0,0,43,2644,42,0.000,4,0,65.129,2.399,-35.020,-10.080,53.980,-0.143,-0.118,1.020,1.282,-2.028,-0.982,0.000,0.000,0.000,0.000,2,2,0,1,7,255,1440,300,193,1440
stim,239,239,0,61791.369,0.998,-0.002,0.030,-0.055,2749,0,4,3296,0,0,45,2631,42,0.000,4,0,56.688,1.602,-18.480,-9.400,52.760,-0.228,-0.110,0.957,0.274,-1.578,-0.760,0.000,0.000,0.000,0.000,2,2,0,1,7,255,1440,300,198,1440
stim,239,239,0,61796.369,0.998,-0.002,0.030,-0.058,2751,0,7,3303,0,0,41,2652,42,0.000,4,0,60.989,1.706,-14.760,-8.920,58.500,-0.252,-0.109,0.853,-0.648,-1.578,-0.760,0.000,0.000,0.000,0.000,2,2,0,1,7,255,1440,300,203,1440
stim,239,239,0,61801.369,0.998,-0.001,0.030,-0.060,2747,0,8,3289,0,0,39,2676,42,0.000,4,0,64.894,1.738,-22.200,-6.420,60.640,-0.211,-0.094,0.810,-0.728,-1.578,-1.732,0.000,0.000,0.000,0.000,2,2,0,1,7,255,1440,300,208,1440
stim,240,240,0,61806.369,0.998,-0.000,0.030,-0.063,2747,0,5,3295,0,0,44,2671,42,0.000,4,0,62.133,1.606,-31.360,-6.360,53.260,-0.148,-0.096,0.847,-0.728,-1.432,-1.950,0.000,0.000,0.000,0.000,2,2,0,1,7,255,1440,300,213,1440
stim,240,240,0,61811.369,0.997,0.001,0.031,-0.065,2759,0,9,3303,0,0,39,2683,42,0.000,4,0,49.970,1.431,-33.680,-5.380,36.520,-0.124,-0.111,0.907,-0.062,-1.430,-1.950,0.000,0.000,0.000,0.000,2,2,0,1,7,255,1440,300,218,1440
stim,272,272,0,61816.369,0.997,0.002,0.031,-0.066,2751,0,7,3299,0,0,41,2671,42,0.000,4,0,34.869,1.357,-28.560,-4.460,19.500,-0.161,-0.099,0.942,-0.048,-1.356,-1.398,0.000,0.000,0.000,0.000,2,2,0,1,7,255,1440,300,223,1440
stim,272,272,0,61821.369,0.997,0.003,0.031,-0.067,2748,0,13,3295,0,0,39,2685,42,0.000,4,0,24.080,1.327,-21.720,-3.300,9.860,-0.222,-0.060,0.930,-0.048,-1.326,-1.036,0.000,0.000,0.000,0.000,2,2,0,1,7,255,1440,300,228,1440
stim,272,272,0,61826.369,0.997,0.004,0.031,-0.067,2764,0,17,3301,0,0,37,2679,42,0.000,4,0,20.267,1.236,-18.120,-2.380,8.760,-0.257,-0.034,0.887,-0.710,-1.012,-1.036,0.000,0.000,0.000,0.000,2,2,0,1,7,255,1440,300,233,1440
stim,272,272,0,61831.369,0.997,0.004,0.031,-0.068,2757,0,19,3291,0,0,40,2693,42,0.000,4,0,21.995,1.335,-19.460,-0.800,10.220,-0.244,-0.026,0.857,-1.066,-0.804,-1.404,0.000,0.000,0.000,0.000,2,2,0,1,7,255,1440,300,238,1440
stim,272,272,0,61836.369,0.997,0.005,0.031,-0.068,2759,0,10,3296,0,0,39,2679,42,0.000,4,0,24.596,1.300,-23.540,1.940,6.860,-0.207,-0.036,0.861,-1.066,-0.744,-1.714,0.000,0.000,0.000,0.000,2,2,0,1,7,255,1440,300,243,1440
stim,272,272,0,61841.369,0.997,0.006,0.031,-0.068,2759,0,19,3305,0,0,39,2693,42,0.000,4,0,26.333,1.016,-25.740,4.880,-2.660,-0.183,-0.051,0.892,-0.692,-0.744,-1.714,0.000,0.000,0.000,0.000,2,2,0,1,7,255,1440,300,248,1440
stim,272,272,0,61846.369,0.997,0.008,0.030,-0.068,2745,0,13,3299,0,0,39,2657,42,0.000,4,0,29.260,0.969,-24.580,8.120,-13.640,-0.201,-0.051,0.919,-0.526,-0.814,-1.462,0.000,0.000,0.000,0.000,2,2,0,1,7,255,1440,300,253,1440
stim,272,272,0,61851.369,0.997,0.009,0.030,-0.067,2751,0,9,3297,0,0,39,2664,42,0.000,4,0,30.927,0.969,-20.860,11.160,-19.920,-0.241,-0.041,0.925,-0.526,-0.814,-1.168,0.000,0.000,0.000,0.000,2,2,0,1,7,255,1440,300,258,1440
stim,272,272,0,61856.369,0.997,0.010,0.029,-0.066,2763,0,15,3305,0,0,39,2571,42,0.000,4,0,29.620,1.164,-17.320,14.040,-19.500,-0.272,-0.032,0.911,-0.904,-0.734,-1.138,0.000,0.000,0.000,0.000,2,2,0,1,7,255,1440,300,263,1440
stim,272,272,0,61861.369,0.997,0.011,0.028,-0.066,2765,0,20,3299,0,0,29,2437,42,0.000,4,0,27.754,1.384,-16.040,16.420,-15.600,-0.270,-0.032,0.897,-1.208,-0.676,-1.138,0.000,0.000,0.000,0.000,2,2,0,1,7,255,1440,300,268,1440
stim,303,303,0,61866.369,0.997,0.011,0.027,-0.065,2763,0,22,3301,0,0,29,2276,42,0.000,4,0,28.033,1.384,-16.100,18.800,-13.160,-0.239,-0.041,0.893,-1.208,-0.676,-1.278,0.000,0.000,0.000,0.000,2,2,0,1,7,255,1440,300,273,1440
stim,303,303,0,61871.369,0.997,0.012,0.026,-0.065,2759,0,24,3296,0,0,37,2270,42,0.000,4,0,30.708,1.130,-15.800,21.300,-15.480,-0.205,-0.050,0.888,-0.892,-0.694,-1.364,0.000,0.000,0.000,0.000,2,2,0,1,7,255,1440,300,278,1440
stim,303,303,0,61876.369,0.998,0.013,0.025,-0.064,2757,0,18,3292,0,0,37,2218,42,0.000,4,0,34.986,0.913,-14.820,23.980,-20.720,-0.194,-0.053,0.876,-0.548,-0.730,-1.454,0.000,0.000,0.000,0.000,2,2,0,1,7,255,1440,300,283,1440
stim,303,303,0,61881.369,0.998,0.014,0.024,-0.063,2761,0,9,3295,0,0,35,2169,42,0.000,4,0,39.401,0.913,-15.360,26.240,-25.060,-0.207,-0.040,0.854,-0.548,-0.730,-1.588,0.000,0.000,0.000,0.000,2,2,0,1,7,255,1440,300,288,1440
stim,369,369,0,61886.369,0.998,0.015,0.023,-0.062,2757,0,11,3289,0,0,35,2125,42,0.000,4,0,42.636,0.861,-18.360,27.940,-26.460,-0.226,-0.030,0.843,-0.598,-0.620,-1.782,0.000,0.000,0.000,0.000,2,2,0,1,7,255,1440,300,293,1440
stim,369,369,0,61891.369,0.998,0.017,0.022,-0.061,2759,0,18,3303,0,0,33,2107,42,0.000,4,0,44.504,0.954,-22.500,29.040,-25.120,-0.241,-0.022,0.844,-0.794,-0.528,-1.824,0.000,0.000,0.000,0.000,2,2,0,1,7,255,1440,300,298,1440
stim,369,369,0,61896.369,0.998,0.018,0.021,-0.060,2747,0,10,3307,0,0,31,2116,42,0.000,4,0,45.601,0.954,-26.180,30.080,-22.120,-0.236,-0.033,0.864,-0.810,-0.504,-1.824,0.000,0.000,0.000,0.000,2,2,0,1,7,255,1440,300,303,1440
stim,369,369,0,61901.369,0.998,0.019,0.019,-0.060,2750,0,13,3301,0,0,31,2184,42,0.000,4,0,46.462,0.954,-27.940,31.120,-20.240,-0.225,-0.054,0.884,-0.810,-0.504,-1.638,0.000,0.000,0.000,0.000,2,2,0,1,7,255,1440,300,308,1440
stim,369,369,0,61906.369,0.998,0.021,0.018,-0.059,2758,0,10,3295,0,0,33,2187,42,0.000,4,0,47.388,0.910,-28.680,32.220,-19.620,-0.222,-0.064,0.897,-0.630,-0.656,-1.450,0.000,0.000,0.000,0.000,2,2,0,1,7,255,1440,300,313,1440
stim,369,369,0,61911.369,0.998,0.022,0.017,-0.059,2747,0,10,3293,0,0,27,2191,42,0.000,4,0,48.184,0.914,-29.460,33.080,-18.960,-0.230,-0.070,0.909,-0.570,-0.714,-1.322,0.000,0.000,0.000,0.000,2,2,0,1,7,255,1440,300,318,1440
stim,369,369,0,61916.370,0.998,0.024,0.015,-0.058,2743,0,12,3308,0,0,35,2169,42,0.000,4,0,47.866,0.914,-29.840,33.680,-16.320,-0.245,-0.067,0.922,-0.570,-0.714,-1.186,0.000,0.000,0.000,0.000,2,2,0,1,7,255,1440,300,323,1440
stim,369,369,0,61921.369,0.998,0.025,0.014,-0.058,2759,0,31,3305,0,0,33,2182,42,0.000,4,0,46.302,0.966,-29.460,33.920,-11.200,-0.258,-0.053,0.927,-0.672,-0.694,-1.034,0.000,0.000,0.000,0.000,2,2,0,1,7,255,1440,300,328,1440
stim,369,369,0,61926.369,0.998,0.027,0.012,-0.058,2747,0,5,3291,0,0,30,2184,42,0.000,4,0,44.955,0.946,-29.100,33.920,-4.860,-0.260,-0.043,0.922,-0.782,-0.532,-1.016,0.000,0.000,0.000,0.000,2,2,0,1,7,255,1440,300,333,1440
stim,369,369,0,61931.369,0.998,0.028,0.011,-0.058,2743,0,8,3300,0,0,29,2197,42,0.000,4,0,45.121,0.888,-30.080,33.620,0.880,-0.250,-0.039,0.914,-0.782,-0.420,-1.016,0.000,0.000,0.000,0.000,2,2,0,1,7,255,1440,300,338,1440
stim,369,369,0,61936.369,0.998,0.029,0.010,-0.058,2759,0,7,3299,0,0,28,2190,42,0.000,4,0,47.062,0.776,-33.260,32.960,4.720,-0.241,-0.032,0.905,-0.694,-0.348,-1.112,0.000,0.000,0.000,0.000,2,2,0,1,7,255,1440,300,343,1440
stim,369,369,0,61941.370,0.998,0.031,0.008,-0.059,2743,0,3,3297,0,0,27,2197,42,0.000,4,0,50.065,0.651,-37.760,32.040,7.360,-0.242,-0.030,0.905,-0.602,-0.248,-1.216,0.000,0.000,0.000,0.000,2,2,0,1,7,255,1440,300,348,1440
stim,369,369,0,61946.369,0.998,0.033,0.007,-0.060,2740,0,24,3296,0,0,27,2186,42,0.000,4,0,53.715,0.627,-42.400,31.060,11.080,-0.244,-0.024,0.915,-0.594,-0.200,-1.216,0.000,0.000,0.000,0.000,2,2,0,1,7,255,1440,300,353,1440
stim,369,369,0,61951.369,0.998,0.035,0.006,-0.061,2748,0,5,3295,0,0,27,2189,42,0.000,4,0,57.140,0.594,-45.880,29.960,16.200,-0.250,-0.031,0.936,-0.582,-0.120,-1.128,0.000,0.000,0.000,0.000,2,2,0,1,7,255,1440,300,358,1440
stim,383,383,0,61956.369,0.997,0.037,0.005,-0.062,2733,0,12,3307,0,0,24,2185,42,0.000,4,0,60.065,0.581,-47.960,28.560,22.180,-0.249,-0.033,0.951,-0.572,-0.102,-0.908,0.000,0.000,0.000,0.000,2,2,0,1,7,255,1440,300,363,1440
stim,383,383,0,61961.369,0.997,0.039,0.003,-0.064,2739,0,21,3309,0,0,27,2201,42,0.000,4,0,63.062,0.515,-49.420,26.980,28.400,-0.242,-0.025,0.959,-0.508,-0.084,-0.766,0.000,0.000,0.000,0.000,2,2,0,1,7,255,1440,300,368,1440
stim,384,384,0,61966.369,0.997,0.040,0.002,-0.066,2739,0,19,3299,0,0,24,2141,42,0.000,4,0,66.505,0.415,-51.080,25.380,34.200,-0.229,-0.021,0.960,-0.412,0.046,-0.732,0.000,0.000,0.000,0.000,2,2,0,1,7,255,1440,300,373,1440
stim,384,384,0,61971.369,0.997,0.042,0.001,-0.068,2743,0,7,3300,0,0,24,2107,42,0.000,4,0,70.624,0.311,-53.820,24.040,38.900,-0.214,-0.025,0.960,-0.278,0.140,-0.732,0.000,0.000,0.000,0.000,2,2,0,1,7,255,1440,300,378,1440
stim,449,449,0,61976.369,0.997,0.045,0.000,-0.070,2741,0,7,3303,0,0,27,2159,42,0.000,4,0,74.786,0.179,-57.120,22.400,42.760,-0.201,-0.038,0.969,-0.112,0.140,-0.732,0.000,0.000,0.000,0.000,2,2,0,1,7,255,1440,300,383,1440
stim,449,449,0,61981.369,0.996,0.047,-0.000,-0.073,2732,0,25,3293,0,0,28,2168,42,0.000,4,0,79.021,0.156,-60.100,20.800,46.900,-0.188,-0.041,0.985,0.060,0.144,-0.690,0.000,0.000,0.000,0.000,2,2,0,1,7,255,1440,300,388,1440
stim,449,449,0,61986.369,0.996,0.049,-0.001,-0.075,2728,0,33,3301,0,0,27,2170,42,0.000,4,0,82.194,0.271,-61.200,19.460,51.300,-0.176,-0.040,1.000,0.230,0.144,-0.564,0.000,0.000,0.000,0.000,2,2,0,1,7,255,1440,300,393,1440
stim,449,449,0,61991.369,0.996,0.051,-0.002,-0.078,2739,0,33,3305,0,0,27,2176,42,0.000,4,0,84.224,0.453,-61.140,18.120,55.020,-0.159,-0.039,1.002,0.386,0.238,-0.476,0.000,0.000,0.000,0.000,2,2,0,1,7,255,1440,300,398,1440
stim,449,449,0,61996.369,0.995,0.053,-0.003,-0.081,2728,0,23,3291,0,0,29,2160,42,0.000,4,0,86.227,0.649,-61.880,16.840,57.640,-0.140,-0.037,0.994,0.566,0.318,-0.476,0.000,0.000,0.000,0.000,2,2,0,1,7,255,1440,300,403,1440
stim,449,449,0,62001.369,0.995,0.055,-0.004,-0.084,2735,0,28,3292,0,0,21,2171,42,0.000,4,0,88.665,0.830,-64.680,15.320,58.680,-0.126,-0.039,0.990,0.732,0.392,-0.606,0.000,0.000,0.000,0.000,2,2,0,1,7,255,1440,300,408,1440
stim,449,449,0,62006.369,0.994,0.058,-0.004,-0.087,2727,0,3,3291,0,0,23,2171,42,0.000,4,0,91.257,0.968,-68.600,13.360,58.680,-0.117,-0.041,0.996,0.864,0.436,-0.642,0.000,0.000,0.000,0.000,2,2,0,1,7,255,1440,300,413,1440
stim,449,449,0,62011.369,0.994,0.060,-0.005,-0.090,2720,0,5,3299,0,0,22,2141,42,0.000,4,0,93.743,1.093,-71.760,11.660,59.180,-0.109,-0.033,1.013,0.976,0.492,-0.642,0.000,0.000,0.000,0.000,2,2,0,1,7,255,1440,300,418,1440
stim,450,450,0,62016.369,0.994,0.063,-0.005,-0.094,2720,0,17,3295,0,0,19,2091,42,0.000,4,0,95.201,1.263,-73.160,9.700,60.140,-0.101,-0.036,1.029,1.072,0.668,-0.514,0.000,0.000,0.000,0.000,2,2,0,1,7,255,1440,300,423,1440
stim,450,450,0,62021.369,0.993,0.066,-0.005,-0.097,2719,0,3,3291,0,0,23,2117,42,0.000,4,0,96.098,1.392,-74.140,7.800,60.640,-0.090,-0.042,1.039,1.184,0.732,-0.382,0.000,0.000,0.000,0.000,2,2,0,1,7,255,1440,300,428,1440
stim,450,450,0,62026.369,0.993,0.068,-0.006,-0.100,2725,0,10,3293,0,0,22,2087,42,0.000,4,0,96.767,1.526,-75.240,5.740,60.580,-0.079,-0.051,1.047,1.318,0.770,-0.320,0.000,0.000,0.000,0.000,2,2,0,1,7,255,1440,300,433,1440
stim,450,450,0,62031.369,0.992,0.071,-0.006,-0.103,2725,0,6,3309,0,0,20,2073,42,0.000,4,0,97.762,1.645,-76.640,3.720,60.580,-0.064,-0.056,1.058,1.448,0.780,-0.262,0.000,0.000,0.000,0.000,2,2,0,1,7,255,1440,300,438,1440
stim,464,464,0,62036.369,0.992,0.074,-0.006,-0.107,2729,0,3,3305,0,0,21,2105,42,0.000,4,0,98.556,1.821,-77.620,2.000,60.700,-0.052,-0.060,1.072,1.614,0.844,-0.196,0.000,0.000,0.000,0.000,2,2,0,1,7,255,1440,300,443,1440
stim,464,464,0,62041.369,0.991,0.076,-0.006,-0.110,2719,0,10,3302,0,0,21,2133,42,0.000,4,0,99.122,1.983,-78.360,0.600,60.700,-0.037,-0.069,1.090,1.756,0.922,-0.088,0.000,0.000,0.000,0.000,2,2,0,1,7,255,1440,300,448,1440
stim,480,480,0,62046.369,0.990,0.079,-0.006,-0.113,2727,0,10,3291,0,0,19,2129,42,0.000,4,0,98.442,2.165,-77.500,-0.320,60.700,-0.022,-0.075,1.109,1.938,0.964,0.054,0.000,0.000,0.000,0.000,2,2,0,1,7,255,1440,300,453,1440
stim,480,480,0,62051.369,0.990,0.082,-0.006,-0.116,2719,0,17,3303,0,0,20,2145,42,0.000,4,0,96.956,2.355,-75.360,-0.620,61.000,-0.007,-0.079,1.125,2.114,1.038,0.198,0.000,0.000,0.000,0.000,2,2,0,1,7,255,1440,300,458,1440
stim,480,480,0,62056.369,0.989,0.084,-0.006,-0.120,2730,0,18,3299,0,0,21,2119,42,0.000,4,0,94.890,2.549,-72.380,-0.500,61.360,0.003,-0.089,1.140,2.284,1.132,0.316,0.000,0.000,0.000,0.000,2,2,0,1,7,255,1440,300,463,1440
stim,480,480,0,62061.369,0.989,0.086,-0.006,-0.123,2723,0,9,3301,0,0,17,2079,42,0.000,4,0,92.506,2.687,-68.780,-0.200,61.860,0.014,-0.092,1.146,2.424,1.160,0.432,0.000,0.000,0.000,0.000,2,2,0,1,7,255,1440,300,468,1440
stim,543,543,0,62066.369,0.988,0.088,-0.006,-0.126,2727,0,7,3309,0,0,20,2056,42,0.000,4,0,90.090,2.813,-64.140,0.660,63.260,0.028,-0.085,1.145,2.528,1.234,0.432,0.000,0.000,0.000,0.000,2,2,0,1,7,255,1440,300,473,1440
stim,543,543,0,62071.369,0.987,0.090,-0.006,-0.130,2728,0,8,3307,0,0,17,2061,42,0.000,4,0,88.212,2.973,-59.980,1.700,64.660,0.046,-0.085,1.135,2.630,1.386,0.402,0.000,0.000,0.000,0.000,2,2,0,1,7,255,1440,300,478,1440
stim,543,543,0,62076.371,0.987,0.092,-0.006,-0.133,2717,0,10,3296,0,0,18,2037,42,0.000,4,0,86.591,3.137,-56.740,3.040,65.340,0.069,-0.092,1.120,2.776,1.460,0.258,0.000,0.000,0.000,0.000,2,2,0,1,7,255,1440,300,483,1440
stim,543,543,0,62081.369,0.986,0.094,-0.006,-0.136,2717,0,6,3298,0,0,20,2040,42,0.000,4,0,84.882,3.309,-54.360,4.440,65.040,0.087,-0.096,1.104,2.968,1.462,0.062,0.000,0.000,0.000,0.000,2,2,0,1,7,255,1440,300,488,1440
stim,543,543,0,62086.369,0.986,0.096,-0.007,-0.139,2715,0,19,3303,0,0,21,2067,42,0.000,4,0,83.141,3.447,-52.600,5.860,64.120,0.101,-0.097,1.096,3.110,1.486,-0.130,0.000,0.000,0.000,0.000,2,2,0,1,7,255,1440,300,493,1440
stim,543,543,0,62091.369,0.985,0.097,-0.007,-0.142,2718,0,5,3305,0,0,19,2104,42,0.000,4,0,81.128,3.575,-50.580,7.200,63.020,0.112,-0.101,1.088,3.224,1.544,-0.244,0.000,0.000,0.000,0.000,2,2,0,1,7,255,1440,300,498,1440
stim,543,543,0,62096.369,0.984,0.099,-0.008,-0.145,2717,0,10,3301,0,0,21,2133,42,0.000,4,0,79.753,3.673,-49.120,8.300,62.280,0.122,-0.104,1.080,3.322,1.566,-0.346,0.000,0.000,0.000,0.000,2,2,0,1,7,255,1440,300,503,1440
stim,543,543,0,62101.369,0.984,0.100,-0.008,-0.148,2713,0,12,3296,0,0,17,2157,42,0.000,4,0,78.669,3.749,-47.540,9.340,61.980,0.131,-0.111,1.075,3.400,1.580,-0.450,0.000,0.000,0.000,0.000,2,2,0,1,7,255,1440,300,508,1440
stim,543,543,0,62106.369,0.983,0.101,-0.009,-0.151,2723,0,9,3303,0,0,17,2157,42,0.000,4,0,77.318,3.840,-45.280,10.060,61.860,0.142,-0.115,1.066,3.496,1.588,-0.518,0.000,0.000,0.000,0.000,2,2,0,1,7,255,1440,300,513,1440
stim,543,543,0,62111.369,0.983,0.103,-0.009,-0.154,2724,0,10,3297,0,0,17,2187,42,0.000,4,0,75.681,3.933,-43.080,10.680,61.300,0.154,-0.115,1.053,3.594,1.598,-0.626,0.000,0.000,0.000,0.000,2,2,0,1,7,255,1440,300,518,1440
stim,575,575,0,62116.369,0.982,0.104,-0.010,-0.157,2710,0,19,3303,0,0,20,2173,42,0.000,4,0,74.416,4.030,-41.800,10.980,60.580,0.167,-0.118,1.037,3.678,1.646,-0.790,0.000,0.000,0.000,0.000,2,2,0,1,7,255,1440,300,523,1440
stim,575,575,0,62121.369,0.981,0.105,-0.011,-0.160,2707,0,20,3293,0,0,21,2174,42,0.000,4,0,72.767,4.124,-41.180,10.980,58.980,0.176,-0.117,1.022,3.780,1.650,-0.976,0.000,0.000,0.000,0.000,2,2,0,1,7,255,1440,300,528,1440
stim,575,575,0,62126.369,0.981,0.106,-0.011,-0.163,2723,0,20,3303,0,0,20,2167,42,0.000,4,0,71.323,4.187,-41.300,10.680,57.160,0.182,-0.113,1.010,3.832,1.688,-1.148,0.000,0.000,0.000,0.000,2,2,0,1,7,255,1440,300,533,1440
stim,575,575,0,62131.369,0.980,0.108,-0.012,-0.165,2716,0,22,3309,0,0,19,2175,42,0.000,4,0,69.592,4.212,-41.560,9.760,54.960,0.182,-0.108,0.997,3.832,1.748,-1.298,0.000,0.000,0.000,0.000,2,2,0,1,7,255,1440,300,538,1440
stim,575,575,0,62136.369,0.980,0.109,-0.012,-0.168,2712,0,22,3300,0,0,23,2159,42,0.000,4,0,68.055,4.215,-41.800,8.300,53.060,0.176,-0.101,0.983,3.808,1.806,-1.442,0.000,0.000,0.000,0.000,2,2,0,1,7,255,1440,300,543,1440
stim,575,575,0,62141.370,0.979,0.110,-0.012,-0.170,2711,0,24,3309,0,0,18,2175,42,0.000,4,0,66.790,4.147,-42.160,6.280,51.420,0.167,-0.087,0.959,3.706,1.862,-1.580,0.000,0.000,0.000,0.000,2,2,0,1,7,255,1440,300,548,1440
stim,575,575,0,62146.369,0.979,0.112,-0.013,-0.173,2715,0,24,3291,0,0,19,2167,42,0.000,4,0,66.896,4.026,-44.180,3.900,50.080,0.167,-0.067,0.931,3.530,1.936,-1.810,0.000,0.000,0.000,0.000,2,2,0,1,7,255,1440,300,553,1440
stim,575,575,0,62151.369,0.978,0.113,-0.013,-0.175,2713,0,19,3309,0,0,5,2173,42,0.000,4,0,68.330,3.931,-48.380,1.100,48.240,0.161,-0.077,0.914,3.408,1.960,-2.124,0.000,0.000,0.000,0.000,2,2,0,1,7,255,1440,300,558,1440
stim,575,575,0,62156.370,0.977,0.115,-0.013,-0.178,2723,0,19,3307,0,0,0,2155,42,0.000,4,0,71.593,3.890,-54.360,-3.180,46.480,0.155,-0.074,0.904,3.344,1.988,-2.250,0.000,0.000,0.000,0.000,2,2,0,1,7,255,1440,300,563,1440
stim,576,576,0,62161.369,0.977,0.117,-0.012,-0.180,2712,0,16,3291,0,0,0,2168,42,0.000,4,0,76.320,3.803,-60.840,-7.640,45.440,0.142,-0.071,0.912,3.242,1.988,-2.250,0.000,0.000,0.000,0.000,2,2,0,1,7,255,1440,300,568,1440
stim,608,608,0,62166.369,0.976,0.119,-0.012,-0.183,2707,0,12,3307,0,0,0,2165,42,0.000,4,0,79.608,3.708,-64.560,-12.460,44.880,0.127,-0.079,0.924,3.106,2.026,-2.250,0.000,0.000,0.000,0.000,2,2,0,1,7,255,1440,300,573,1440
stim,608,608,0,62171.369,0.975,0.121,-0.011,-0.185,2715,0,12,3301,0,0,0,2181,42,0.000,4,0,82.570,3.622,-66.760,-17.520,45.320,0.118,-0.082,0.926,3.002,2.026,-2.088,0.000,0.000,0.000,0.000,2,2,0,1,7,255,1440,300,578,1440
stim,608,608,0,62176.369,0.974,0.124,-0.010,-0.188,2704,0,15,3296,0,0,0,2160,42,0.000,4,0,86.836,3.538,-69.320,-22.900,47.020,0.112,-0.059,0.924,2.900,2.026,-2.088,0.000,0.000,0.000,0.000,2,2,0,1,7,255,1440,300,583,1440
stim,608,608,0,62181.369,0.973,0.126,-0.008,-0.192,2715,0,25,3303,0,0,0,2336,42,0.000,4,0,107.894,3.674,-85.680,-25.100,60.580,0.247,0.043,0.983,2.900,2.256,-2.100,0.000,0.000,0.000,0.000,2,2,0,1,7,255,1440,300,588,1440
stim,658,658,0,62186.369,0.971,0.133,-0.007,-0.198,2698,0,29,3295,0,0,0,2568,42,0.000,4,0,218.817,4.260,-190.180,-10.020,107.760,0.124,-0.630,1.625,3.614,2.256,-2.100,0.000,0.000,0.000,0.000,2,2,0,1,7,255,1440,300,593,1440
stim,658,658,0,62191.369,0.970,0.137,-0.006,-0.201,2697,0,26,3299,0,0,0,2647,42,0.000,4,0,121.639,5.955,-106.060,-17.340,56.980,-0.045,-0.844,2.112,5.954,-0.082,5.668,0.000,0.000,0.000,0.000,2,2,0,1,7,255,1440,300,598,1440
stim,672,672,0,62196.369,0.970,0.133,-0.007,-0.203,2685,0,23,3303,0,0,0,2789,42,0.000,4,0,90.006,5.955,68.680,-11.720,56.980,-0.231,0.098,2.067,5.954,-0.082,8.738,0.000,0.000,0.000,0.000,2,2,0,1,7,255,1440,300,603,1440
stim,672,672,0,62201.369,0.971,0.126,-0.008,-0.205,2688,0,51,3291,0,0,0,2801,42,0.000,4,0,174.576,6.662,153.160,-11.960,82.920,-0.255,0.561,1.520,0.630,6.632,8.738,0.000,0.000,0.000,0.000,2,2,0,1,7,255,1440,300,608,1440
stim,672,672,0,62206.369,0.971,0.119,-0.009,-0.209,2685,0,41,3302,0,0,0,2715,42,0.000,4,0,199.713,6.635,148.380,-17.820,132.480,-0.014,0.355,0.863,-0.202,6.632,2.768,0.000,0.000,0.000,0.000,2,2,0,1,7,255,1440,300,613,1440
stim,672,672,0,62211.369,0.970,0.113,-0.011,-0.216,2686,0,31,3295,0,0,0,2807,42,0.000,4,0,204.561,5.264,100.420,-13.560,177.700,0.200,0.132,0.577,-0.202,5.260,-3.272,0.000,0.000,0.000,0.000,2,2,0,1,7,255,1440,300,618,1440
stim,672,672,0,62216.369,0.969,0.109,-0.012,-0.223,2699,0,41,3291,0,0,0,2763,42,0.000,4,0,192.259,4.926,49.880,-14.100,185.140,0.399,0.212,0.546,2.120,4.446,-5.926,0.000,0.000,0.000,0.000,2,2,0,1,7,255,1440,300,623,1440
stim,672,672,0,62221.369,0.967,0.107,-0.013,-0.229,2697,0,78,3299,0,0,0,2649,42,0.000,4,0,149.322,5.617,2.280,-13.200,148.720,0.551,0.250,0.646,3.432,4.446,-6.476,0.000,0.000,0.000,0.000,2,2,0,1,7,255,1440,300,628,1440
stim,672,672,0,62226.369,0.966,0.108,-0.013,-0.233,2696,0,97,3303,0,0,0,2671,42,0.000,4,0,85.632,6.783,-32.940,-4.040,78.940,0.596,0.070,0.827,4.684,4.906,-6.476,0.000,0.000,0.000,0.000,2,2,0,1,7,255,1440,300,633,1440
stim,672,672,0,62231.369,0.966,0.109,-0.012,-0.233,2697,0,90,3292,0,0,0,2504,42,0.000,4,0,43.941,7.280,-43.260,-2.640,7.240,0.440,0.096,1.063,5.002,5.290,-4.576,0.000,0.000,0.000,0.000,2,2,0,1,7,255,1440,300,638,1440
stim,672,672,0,62236.369,0.966,0.111,-0.012,-0.232,2703,0,84,3307,0,0,0,2419,42,0.000,4,0,46.436,7.280,-31.120,0.600,-34.460,0.211,0.312,1.167,5.002,5.290,-2.034,0.000,0.000,0.000,0.000,2,2,0,1,7,255,1440,300,643,1440
stim,672,672,0,62241.369,0.967,0.111,-0.012,-0.231,2707,0,86,3304,0,0,0,2659,42,0.000,4,0,40.446,6.949,4.960,10.060,-38.860,-0.013,0.444,1.145,2.228,6.582,-0.924,0.000,0.000,0.000,0.000,2,2,0,1,7,255,1440,300,648,1440
stim,672,672,0,62246.369,0.967,0.110,-0.012,-0.229,2701,0,123,3291,0,0,0,2839,42,0.000,4,0,42.778,6.589,31.380,13.780,-25.600,-0.149,0.386,0.986,-0.296,6.582,-0.924,0.000,0.000,0.000,0.000,2,2,0,1,7,255,1440,300,653,1440
stim,672,672,0,62251.369,0.967,0.108,-0.013,-0.228,2702,0,117,3309,4,0,0,2807,42,0.000,4,0,39.922,5.461,35.420,15.320,-10.220,-0.210,0.309,0.807,-1.430,5.270,-1.738,0.000,0.000,0.000,0.000,2,2,0,1,7,255,1440,300,658,1440
stim,688,688,0,62256.370,0.968,0.107,-0.015,-0.228,2696,0,111,3292,107,0,11,2964,42,0.000,4,0,33.779,4.792,25.840,21.660,-2.040,-0.168,0.401,0.695,-1.876,4.410,-3.038,0.000,0.000,0.000,0.000,2,2,0,1,7,255,1440,300,663,1440
stim,688,688,0,62261.369,0.968,0.107,-0.016,-0.227,2697,0,104,3315,167,46,0,3067,42,0.000,4,0,40.018,4.792,9.900,38.760,1.060,-0.043,0.439,0.744,-1.876,4.410,-4.334,0.000,0.000,0.000,0.000,2,2,0,1,7,255,1440,300,668,1440
stim,688,688,0,62266.369,0.968,0.108,-0.018,-0.226,2703,0,110,3293,147,63,0,3007,42,0.000,4,0,61.885,5.452,-12.080,48.880,-35.980,0.109,0.398,0.870,-1.048,5.350,-4.334,0.000,0.000,0.000,0.000,2,2,0,1,7,255,1440,300,673,1440
stim,688,688,0,62271.369,0.969,0.110,-0.019,-0.221,2698,0,108,3303,173,59,0,3289,42,0.000,4,0,121.493,5.355,-13.840,37.160,-114.840,-0.108,0.076,0.874,0.242,5.350,-3.542,0.000,0.000,0.000,0.000,2,2,0,1,7,255,1440,300,678,1440
stim,752,752,0,62276.369,0.970,0.114,-0.018,-0.214,2697,0,95,3293,230,85,17,3222,42,0.000,4,0,183.947,2.470,-44.720,16.100,-177.700,-0.515,-0.145,0.922,0.242,2.458,-2.246,0.000,0.000,0.000,0.000,2,2,0,1,7,255,1440,300,683,1440
stim,752,752,0,62281.369,0.971,0.120,-0.015,-0.207,2705,0,121,3291,245,69,5,3257,42,0.000,4,0,232.814,2.396,-108.140,-6.240,-206.080,-0.833,0.023,1.143,-2.318,0.608,-0.192,0.000,0.000,0.000,0.000,2,2,0,1,7,255,1440,300,688,1440
stim,752,752,0,62286.369,0.971,0.127,-0.012,-0.201,2687,0,107,3305,246,83,4,3308,42,0.000,4,0,220.551,5.547,-127.740,-8.300,-179.600,-1.087,0.382,1.493,-5.514,0.608,2.292,0.000,0.000,0.000,0.000,2,2,0,1,7,255,1440,300,693,1440
stim,752,752,0,62291.369,0.972,0.131,-0.011,-0.197,2697,0,141,3296,247,1,2,3471,42,0.000,4,0,121.443,9.689,-67.120,3.160,-101.160,-1.103,0.545,1.666,-8.692,4.280,5.226,0.000,0.000,0.000,0.000,2,2,0,1,7,255,1440,300,698,1440
stim,752,752,0,62296.369,0.972,0.130,-0.011,-0.198,2707,0,137,3300,253,9,28,3504,42,0.000,4,0,32.515,9.689,21.320,-2.320,24.440,-0.922,0.271,1.499,-8.692,4.280,5.226,0.000,0.000,0.000,0.000,2,2,0,1,7,255,1440,300,703,1440
stim,752,752,0,62301.369,0.971,0.125,-0.013,-0.202,2701,0,152,3296,271,54,26,3405,42,0.000,4,0,136.315,7.897,70.640,-3.180,116.540,-0.554,0.097,1.034,-6.824,3.974,5.054,0.000,0.000,0.000,0.000,2,2,0,1,7,255,1440,300,708,1440
stim,752,752,0,62306.369,0.971,0.122,-0.015,-0.207,2711,0,152,3295,309,63,39,3965,42,0.000,4,0,144.091,4.229,53.660,10.420,133.320,-0.148,0.090,0.752,-3.596,2.226,0.302,0.000,0.000,0.000,0.000,2,2,0,1,7,255,1440,300,713,1440
stim,752,752,0,62311.369,0.970,0.121,-0.016,-0.211,2703,0,153,3304,288,104,37,3981,42,0.000,4,0,98.084,2.153,7.640,17.760,96.160,0.153,-0.026,0.716,-0.416,2.112,-3.332,0.000,0.000,0.000,0.000,2,2,0,1,7,255,1440,300,718,1440
stim,752,752,0,62316.369,0.969,0.122,-0.016,-0.213,2705,0,126,3307,300,101,40,3955,42,0.000,4,0,50.207,3.382,-32.640,7.320,37.440,0.281,-0.165,0.808,2.642,2.112,-3.446,0.000,0.000,0.000,0.000,2,2,0,1,7,255,1440,300,723,1440
stim,752,752,0,62321.369,0.969,0.125,-0.015,-0.212,2701,0,133,3295,278,121,37,3932,42,0.000,4,0,62.217,4.200,-58.220,-9.580,-19.740,0.188,-0.112,0.931,3.630,2.112,-3.446,0.000,0.000,0.000,0.000,2,2,0,1,7,255,1440,300,728,1440
stim,754,754,0,62326.369,0.969,0.127,-0.014,-0.211,2701,0,132,3291,286,157,46,3955,42,0.000,4,0,81.018,4.272,-60.480,-7.940,-53.320,-0.078,0.081,1.040,3.630,2.252,-2.186,0.000,0.000,0.000,0.000,2,2,0,1,7,255,1440,300,733,1440
stim,754,754,0,62331.369,0.969,0.130,-0.013,-0.209,2703,0,135,3303,295,211,51,3989,42,0.000,4,0,67.294,3.474,-48.020,-4.160,-46.960,-0.282,0.176,1.145,0.662,3.410,-0.930,0.000,0.000,0.000,0.000,2,2,0,1,7,255,1440,300,738,1440
stim,755,755,0,62336.369,0.969,0.131,-0.013,-0.209,2701,0,165,3304,295,299,55,3997,42,0.000,4,0,32.681,3.676,-26.720,-5.740,-17.920,-0.363,0.118,1.129,-1.372,3.410,0.340,0.000,0.000,0.000,0.000,2,2,0,1,7,255,1440,300,743,1440
stim,755,755,0,62341.369,0.969,0.131,-0.013,-0.210,2709,0,165,3307,288,397,57,4019,42,0.000,4,0,22.663,3.618,-16.400,-4.880,14.860,-0.337,0.112,1.044,-1.780,3.150,0.340,0.000,0.000,0.000,0.000,2,2,0,1,7,255,1440,300,748,1440
stim,784,784,0,62346.369,0.969,0.131,-0.012,-0.211,2699,0,157,3294,303,392,48,3996,42,0.000,4,0,36.811,3.398,-13.300,-6.720,33.660,-0.221,0.014,0.965,-1.780,2.894,-0.272,0.000,0.000,0.000,0.000,2,2,0,1,7,255,1440,300,753,1440
stim,784,784,0,62351.369,0.968,0.131,-0.012,-0.213,2688,0,155,3305,335,632,77,4032,42,0.000,4,0,43.236,2.220,-20.860,-3.800,37.680,-0.113,-0.070,0.940,-0.496,2.164,-1.058,0.000,0.000,0.000,0.000,2,2,0,1,7,255,1440,300,758,1440
stim,784,784,0,62356.369,0.968,0.132,-0.012,-0.214,2695,0,140,3305,329,637,103,4012,42,0.000,4,0,33.807,1.884,-24.340,-3.360,23.220,-0.048,-0.183,0.945,0.754,1.726,-1.230,0.000,0.000,0.000,0.000,2,2,0,1,7,255,1440,300,763,1440
stim,784,784,0,62361.369,0.968,0.133,-0.011,-0.215,2687,0,166,3302,351,725,113,4032,42,0.000,4,0,28.566,2.042,-27.140,-1.280,8.820,-0.061,-0.268,0.973,1.774,1.012,-1.230,0.000,0.000,0.000,0.000,2,2,0,1,7,255,1440,300,768,1440
stim,847,847,0,62366.369,0.967,0.134,-0.011,-0.215,2693,0,160,3301,353,748,139,4025,42,0.000,4,0,26.203,1.846,-26.180,0.900,-0.640,-0.095,-0.286,0.977,1.810,0.362,-0.724,0.000,0.000,0.000,0.000,2,2,0,1,7,255,1440,300,773,1440
stim,847,847,0,62371.369,0.967,0.135,-0.010,-0.215,2685,0,172,3303,357,759,158,4078,42,0.000,4,0,23.459,1.884,-22.820,-4.040,-3.640,-0.137,-0.391,0.993,1.880,0.118,-0.544,0.000,0.000,0.000,0.000,2,2,0,1,7,255,1440,300,778,1440
stim,847,847,0,62376.369,0.967,0.136,-0.010,-0.215,2685,0,160,3303,357,752,166,4068,42,0.000,4,0,20.936,1.995,-20.620,-3.420,-1.200,-0.179,-0.421,0.971,1.810,-0.840,-0.016,0.000,0.000,0.000,0.000,2,2,0,1,7,255,1440,300,783,1440
stim,847,847,0,62381.369,0.967,0.137,-0.009,-0.215,2696,0,149,3295,353,785,173,4079,42,0.000,4,0,16.850,2.212,-16.160,-4.700,-0.820,-0.175,-0.459,0.983,1.790,-1.300,-0.010,0.000,0.000,0.000,0.000,2,2,0,1,7,255,1440,300,788,1440
stim,847,847,0,62386.370,0.967,0.137,-0.009,-0.216,2699,0,151,3293,353,790,172,4095,42,0.000,4,0,14.609,2.370,-13.840,-4.340,1.740,-0.156,-0.484,0.978,1.790,-1.554,0.158,0.000,0.000,0.000,0.000,2,2,0,1,7,255,1440,300,793,1440
stim,847,847,0,62391.369,0.967,0.138,-0.008,-0.216,2687,0,152,3294,365,807,175,4095,42,0.000,4,0,10.945,2.579,-10.420,-3.300,0.580,-0.127,-0.478,0.965,2.034,-1.586,0.158,0.000,0.000,0.000,0.000,2,2,0,1,7,255,1440,300,798,1440
stim,847,847,0,62396.369,0.967,0.139,-0.008,-0.216,2705,0,149,3309,373,861,181,4095,42,0.000,4,0,11.447,2.738,-9.760,-2.440,-5.460,-0.120,-0.471,0.956,2.232,-1.586,-0.044,0.000,0.000,0.000,0.000,2,2,0,1,7,255,1440,300,803,1440
stim,847,847,0,62401.369,0.966,0.139,-0.007,-0.216,2695,0,135,3303,357,841,217,4092,42,0.000,4,0,16.364,2.699,-11.700,-3.660,-10.840,-0.134,-0.417,0.970,2.232,-1.518,-0.136,0.000,0.000,0.000,0.000,2,2,0,1,7,255,1440,300,808,1440
stim,847,847,0,62406.369,0.966,0.140,-0.006,-0.215,2701,0,153,3293,460,893,223,4095,42,0.000,4,0,17.940,2.167,-10.920,-3.860,-13.700,-0.154,-0.341,0.987,1.896,-1.050,-0.136,0.000,0.000,0.000,0.000,2,2,0,1,7,255,1440,300,813,1440
stim,847,847,0,62411.369,0.967,0.140,-0.006,-0.215,2695,0,160,3290,505,875,231,4095,42,0.000,4,0,15.112,1.479,-7.380,-3.480,-12.720,-0.159,-0.285,0.998,1.422,-0.406,-0.136,0.000,0.000,0.000,0.000,2,2,0,1,7,255,1440,300,818,1440
stim,881,881,0,62416.370,0.967,0.140,-0.005,-0.214,2695,0,153,3301,492,865,251,4095,42,0.000,4,0,11.897,1.148,-3.900,-3.180,-10.780,-0.148,-0.242,0.985,1.144,0.090,-0.174,0.000,0.000,0.000,0.000,2,2,0,1,7,255,1440,300,823,1440
stim,881,881,0,62421.369,0.967,0.140,-0.005,-0.214,2697,0,233,3288,494,857,251,4095,42,0.000,4,0,10.601,1.128,-2.120,-2.880,-9.980,-0.134,-0.203,0.968,1.036,0.446,-0.428,0.000,0.000,0.000,0.000,2,2,0,1,7,255,1440,300,828,1440
stim,881,881,0,62426.369,0.967,0.140,-0.004,-0.214,2695,0,293,3302,507,862,263,4088,42,0.000,4,0,10.696,1.235,-2.480,-2.500,-10.100,-0.128,-0.173,0.952,0.970,0.764,-0.732,0.000,0.000,0.000,0.000,2,2,0,1,7,255,1440,300,833,1440
stim,881,881,0,62431.369,0.967,0.139,-0.003,-0.213,2697,0,314,3299,522,871,267,4095,42,0.000,4,1,10.817,1.302,-3.340,-2.500,-9.980,-0.133,-0.148,0.946,0.866,0.972,-0.972,0.000,0.000,0.000,0.000,2,2,0,1,7,255,1440,300,838,1440
stim,881,881,0,62436.369,0.967,0.138,-0.002,-0.213,2696,0,213,3287,533,841,261,4093,42,0.000,4,1,12.225,1.314,-3.280,-1.340,-11.700,-0.124,-0.111,0.974,0.694,1.116,-0.972,0.000,0.000,0.000,0.000,2,2,0,1,7,255,1440,300,843,1440
stim,881,881,0,62441.369,0.968,0.137,-0.002,-0.212,2707,0,218,3293,536,841,281,4095,42,0.000,4,1,13.256,1.625,-3.220,-1.420,-12.780,-0.146,-0.099,0.971,0.648,1.490,-0.918,0.000,0.000,0.000,0.000,2,2,0,1,7,255,1440,300,848,1440
stim,881,881,0,62446.369,0.968,0.135,-0.001,-0.211,2697,0,216,3288,595,844,283,4095,42,0.000,4,1,11.698,1.568,-1.460,-1.040,-11.560,-0.159,-0.072,0.973,0.386,1.520,-0.910,0.000,0.000,0.000,0.000,2,2,0,1,7,255,1440,300,853,1440
stim,881,881,0,62451.369,0.968,0.134,-0.000,-0.211,2695,0,213,3287,615,845,273,4083,42,0.000,4,1,9.192,1.647,-2.420,-0.920,-8.820,-0.168,-0.044,0.966,0.154,1.640,-0.910,0.000,0.000,0.000,0.000,2,2,0,1,7,255,1440,300,858,1440
stim,881,881,0,62456.369,0.969,0.132,0.000,-0.211,2695,0,317,3291,596,846,279,4093,42,0.000,4,1,5.793,1.772,-2.420,-1.040,-5.160,-0.163,-0.021,0.970,-0.042,1.772,-1.000,0.000,0.000,0.000,0.000,2,2,0,1,7,255,1440,300,863,1440
stim,881,881,0,62461.369,0.969,0.130,0.000,-0.210,2695,0,297,3288,631,851,281,4087,42,0.000,4,1,7.241,1.948,-6.460,-0.260,-3.260,-0.154,-0.008,0.955,-0.078,1.946,-1.018,0.000,0.000,0.000,0.000,2,2,0,1,7,255,1440,300,868,1440
stim,896,896,0,62466.369,0.969,0.128,0.001,-0.210,2701,0,335,3299,634,843,288,4095,42,0.000,4,1,3.982,1.994,-3.580,-0.120,-1.740,-0.141,-0.010,0.989,-0.078,1.992,-1.018,0.000,0.000,0.000,0.000,2,2,0,1,7,255,1440,300,873,1440
stim,896,896,0,62471.369,0.970,0.126,0.001,-0.210,2697,0,351,3289,657,857,303,4095,42,0.000,4,1,2.194,2.073,-1.760,0.360,-1.260,-0.143,0.027,0.985,-0.078,2.072,-0.994,0.000,0.000,0.000,0.000,2,2,0,1,7,255,1440,300,878,1440
stim,896,896,0,62476.369,0.970,0.124,0.002,-0.209,2696,0,339,3297,659,853,300,4085,42,0.000,4,1,2.993,2.133,-2.620,1.100,-0.940,-0.150,0.022,0.972,-0.078,2.132,-0.994,0.000,0.000,0.000,0.000,2,2,0,1,7,255,1440,300,883,1440
stim,896,896,0,62481.369,0.970,0.123,0.002,-0.209,2701,0,221,3288,677,909,303,4089,42,0.000,4,1,8.449,2.136,-8.280,1.580,0.580,-0.157,0.001,0.945,-0.138,2.132,-1.062,0.000,0.000,0.000,0.000,2,2,0,1,7,255,1440,300,888,1440
stim,960,960,0,62486.369,0.970,0.121,0.002,-0.209,2687,0,345,3283,670,923,311,4087,42,0.000,4,1,7.473,1.807,-6.340,1.400,3.700,-0.148,-0.025,0.976,-0.138,1.802,-1.062,0.000,0.000,0.000,0.000,2,2,0,1,7,255,1440,300,893,1440
stim,960,960,0,62491.369,0.970,0.119,0.003,-0.210,2699,0,349,3297,663,926,288,4091,42,0.000,4,1,8.243,1.658,-5.060,2.320,6.080,-0.137,-0.028,0.987,0.074,1.656,-0.878,0.000,0.000,0.000,0.000,2,2,0,1,7,255,1440,300,898,1440
stim,960,960,0,62496.369,0.971,0.118,0.003,-0.210,2696,0,357,3283,668,928,301,4084,42,0.000,4,1,6.894,1.664,-2.980,2.860,5.520,-0.130,-0.074,0.978,0.196,1.652,-0.776,0.000,0.000,0.000,0.000,2,2,0,1,7,255,1440,300,903,1440
stim,960,960,0,62501.369,0.971,0.117,0.004,-0.210,2697,0,341,3285,699,987,303,4085,42,0.000,4,1,7.119,1.252,-4.800,3.340,4.060,-0.146,-0.097,0.954,0.330,1.208,-0.776,0.000,0.000,0.000,0.000,2,2,0,1,7,255,1440,300,908,1440
stim,975,975,0,62506.369,0.971,0.117,0.004,-0.210,2696,0,319,3287,681,936,293,4083,42,0.000,4,1,12.967,0.919,-11.040,3.420,5.880,-0.185,-0.146,0.946,0.330,0.858,-0.758,0.000,0.000,0.000,0.000,2,2,0,1,7,255,1440,300,913,1440
stim,975,975,0,62511.369,0.971,0.116,0.004,-0.210,2707,0,333,3300,683,933,314,4093,42,0.000,4,1,11.850,0.531,-9.200,2.320,7.100,-0.157,-0.155,0.994,0.330,0.416,-0.730,0.000,0.000,0.000,0.000,2,2,0,1,7,255,1440,300,918,1440
stim,975,975,0,62516.369,0.971,0.116,0.005,-0.211,2697,0,346,3300,686,927,311,4094,42,0.000,4,1,13.746,0.564,-9.700,3.420,9.120,-0.161,-0.172,0.999,0.500,0.262,-0.326,0.000,0.000,0.000,0.000,2,2,0,1,7,255,1440,300,923,1440
stim,975,975,0,62521.369,0.971,0.116,0.005,-0.211,2701,0,340,3293,693,951,307,4095,42,0.000,4,1,9.597,0.591,-4.620,2.120,8.140,-0.149,-0.207,0.990,0.530,0.262,-0.262,0.000,0.000,0.000,0.000,2,2,0,1,7,255,1440,300,928,1440
stim,975,975,0,62526.369,0.971,0.116,0.006,-0.211,2699,0,299,3297,711,997,313,4095,42,0.000,4,1,9.987,0.746,-6.100,3.040,7.300,-0.136,-0.203,0.976,0.746,-0.002,-0.262,0.000,0.000,0.000,0.000,2,2,0,1,7,255,1440,300,933,1440
stim,975,975,0,62531.369,0.970,0.116,0.006,-0.212,2700,0,365,3287,729,941,329,4094,42,0.000,4,1,9.101,0.747,-5.540,2.740,6.680,-0.149,-0.214,0.958,0.746,-0.028,-0.426,0.000,0.000,0.000,0.000,2,2,0,1,7,255,1440,300,938,1440
stim,975,975,0,62536.369,0.970,0.115,0.007,-0.212,2709,0,397,3284,719,965,340,4094,42,0.000,4,1,8.438,0.812,-6.100,3.220,4.860,-0.114,-0.205,0.981,0.812,-0.002,-0.426,0.000,0.000,0.000,0.000,2,2,0,1,7,255,1440,300,943,1440
stim,975,975,0,62541.369,0.970,0.115,0.008,-0.212,2707,0,377,3288,721,966,343,4085,42,0.000,4,1,9.505,0.706,-7.740,3.600,4.180,-0.148,-0.207,0.965,0.696,-0.120,-0.464,0.000,0.000,0.000,0.000,2,2,0,1,7,255,1440,300,948,1440
stim,975,975,0,62546.370,0.970,0.115,0.008,-0.212,2710,0,348,3289,727,959,346,4088,42,0.000,4,1,6.390,0.768,-4.860,3.340,2.460,-0.132,-0.199,0.982,0.766,0.052,-0.406,0.000,0.000,0.000,0.000,2,2,0,1,7,255,1440,300,953,1440
stim,975,975,0,62551.369,0.970,0.115,0.009,-0.212,2712,0,411,3295,723,975,345,4084,42,0.000,4,1,6.131,0.768,-4.620,4.020,0.280,-0.130,-0.201,0.994,0.766,0.052,-0.364,0.000,0.000,0.000,0.000,2,2,0,1,7,255,1440,300,958,1440
stim,991,991,0,62556.369,0.970,0.114,0.009,-0.212,2707,0,427,3293,736,984,347,4083,42,0.000,4,1,5.230,0.769,-2.740,3.960,-2.040,-0.143,-0.188,0.988,0.766,0.070,-0.300,0.000,0.000,0.000,0.000,2,2,0,1,7,255,1440,300,963,1440
stim,991,991,0,62561.370,0.970,0.114,0.009,-0.212,2702,0,461,3283,751,995,363,4095,42,0.000,4,1,8.583,0.608,-7.380,4.380,0.160,-0.186,-0.176,0.955,0.604,0.070,-0.300,0.000,0.000,0.000,0.000,2,2,0,1,7,255,1440,300,968,1440
stim,991,991,0,62566.370,0.971,0.114,0.010,-0.212,2702,0,459,3285,782,989,359,4091,42,0.000,4,1,7.038,0.290,-5.720,3.220,2.540,-0.168,-0.166,0.987,0.272,0.102,-0.300,0.000,0.000,0.000,0.000,2,2,0,1,7,255,1440,300,973,1440
stim,991,991,0,62571.369,0.971,0.113,0.010,-0.212,2701,0,481,3292,790,994,374,4091,42,0.000,4,1,6.771,0.334,-5.180,3.600,2.460,-0.145,-0.148,1.010,0.272,0.194,-0.286,0.000,0.000,0.000,0.000,2,2,0,1,7,255,1440,300,978,1440
stim,1055,1055,0,62576.370,0.971,0.113,0.010,-0.212,2707,0,504,3289,819,984,370,4084,42,0.000,4,1,4.099,0.635,-1.640,3.720,-0.520,-0.139,-0.136,1.003,0.418,0.478,-0.266,0.000,0.000,0.000,0.000,2,2,0,1,7,255,1440,300,983,1440
stim,1055,1055,0,62581.369,0.971,0.112,0.011,-0.212,2699,0,509,3292,841,1015,365,4091,42,0.000,4,1,7.822,0.635,-6.460,4.380,-0.520,-0.169,-0.126,0.960,0.418,0.478,-0.266,0.000,0.000,0.000,0.000,2,2,0,1,7,255,1440,300,988,1440
stim,1072,1072,0,62586.369,0.971,0.111,0.011,-0.212,2697,0,557,3293,851,999,381,4072,42,0.000,4,1,6.251,0.453,-5.480,2.740,1.240,-0.167,-0.124,0.972,0.080,0.446,-0.504,0.000,0.000,0.000,0.000,2,2,0,1,7,255,1440,300,993,1440
stim,1072,1072,0,62591.369,0.971,0.111,0.011,-0.212,2699,0,586,3289,847,987,384,4089,42,0.000,4,1,7.652,0.453,-6.400,3.480,2.340,-0.148,-0.109,0.997,0.080,0.446,-0.504,0.000,0.000,0.000,0.000,2,2,0,1,7,255,1440,300,998,1440
stim,1088,1088,0,62596.369,0.971,0.110,0.011,-0.212,2697,0,589,3291,845,967,407,4074,42,0.000,4,1,5.366,0.709,-4.380,3.100,0.020,-0.144,-0.111,1.003,0.208,0.678,-0.346,0.000,0.000,0.000,0.000,2,2,0,1,7,255,1440,300,1003,1440
stim,1088,1088,0,62601.369,0.971,0.109,0.012,-0.212,2701,0,624,3300,852,1001,411,4073,42,0.000,4,1,5.824,0.709,-4.380,3.480,-1.620,-0.158,-0.100,0.987,0.208,0.678,-0.346,0.000,0.000,0.000,0.000,2,2,0,1,7,255,1440,300,1008,1440
stim,1088,1088,0,62606.369,0.971,0.108,0.012,-0.212,2701,0,657,3299,856,1022,411,4071,42,0.000,4,1,10.670,0.657,-10.300,2.680,0.760,-0.188,-0.099,0.950,0.062,0.654,-0.424,0.000,0.000,0.000,0.000,2,2,0,1,7,255,1440,300,1013,1440
stim,1088,1088,0,62611.369,0.971,0.108,0.012,-0.212,2707,0,652,3289,865,1076,409,4075,42,0.000,4,1,9.697,0.551,-8.540,2.260,4.000,-0.159,-0.107,0.986,0.062,0.548,-0.424,0.000,0.000,0.000,0.000,2,2,0,1,7,255,1440,300,1018,1440
stim,1088,1088,0,62616.369,0.971,0.107,0.012,-0.212,2695,0,612,3274,863,1085,419,4075,42,0.000,4,1,8.446,0.554,-6.820,2.800,4.120,-0.137,-0.100,1.012,0.084,0.548,-0.394,0.000,0.000,0.000,0.000,2,2,0,1,7,255,1440,300,1023,1440
stim,1088,1088,0,62621.369,0.971,0.106,0.013,-0.212,2707,0,626,3291,877,1081,419,4076,42,0.000,4,1,5.623,0.658,-4.380,3.100,1.680,-0.136,-0.107,0.992,0.270,0.600,-0.380,0.000,0.000,0.000,0.000,2,2,0,1,7,255,1440,300,1028,1440
stim,1088,1088,0,62626.369,0.971,0.105,0.013,-0.212,2709,0,629,3263,885,1102,422,4068,42,0.000,4,1,5.521,0.658,-4.680,2.920,0.220,-0.150,-0.113,0.964,0.270,0.600,-0.380,0.000,0.000,0.000,0.000,2,2,0,1,7,255,1440,300,1033,1440
stim,1088,1088,0,62631.369,0.971,0.105,0.013,-0.212,2699,0,661,3285,879,1112,416,4079,42,0.000,4,1,8.280,0.429,-7.620,3.100,0.940,-0.163,-0.110,0.964,0.138,0.406,-0.564,0.000,0.000,0.000,0.000,2,2,0,1,7,255,1440,300,1038,1440
stim,1088,1088,0,62636.369,0.971,0.104,0.014,-0.212,2699,0,670,3291,872,1047,407,4065,42,0.000,4,1,11.058,0.372,-10.360,2.860,2.600,-0.165,-0.116,0.978,0.036,0.370,-0.564,0.000,0.000,0.000,0.000,2,2,0,1,7,255,1440,300,1043,1440
stim,1088,1088,0,62641.369,0.971,0.104,0.014,-0.213,2707,0,635,3284,865,1059,404,4077,42,0.000,4,1,12.903,0.340,-11.880,2.980,4.060,-0.166,-0.119,0.982,0.036,0.338,-0.414,0.000,0.000,0.000,0.000,2,2,0,1,7,255,1440,300,1048,1440
stim,1088,1088,0,62646.369,0.971,0.104,0.014,-0.213,2700,0,635,3294,873,1077,411,4075,42,0.000,4,1,9.882,0.308,-8.480,2.380,4.480,-0.148,-0.140,0.998,0.038,0.306,-0.358,0.000,0.000,0.000,0.000,2,2,0,1,7,255,1440,300,1053,1440
stim,1088,1088,0,62651.369,0.971,0.103,0.015,-0.213,2711,0,632,3291,871,1046,401,4071,42,0.000,4,1,8.005,0.374,-6.580,2.920,3.500,-0.140,-0.139,0.992,0.292,0.234,-0.276,0.000,0.000,0.000,0.000,2,2,0,1,7,255,1440,300,1058,1440
stim,1088,1088,0,62656.369,0.972,0.103,0.015,-0.213,2711,0,671,3280,883,1059,397,4085,42,0.000,4,1,7.031,0.379,-6.020,2.920,2.160,-0.142,-0.144,0.969,0.308,0.220,-0.276,0.000,0.000,0.000,0.000,2,2,0,1,7,255,1440,300,1063,1440
stim,1088,1088,0,62661.369,0.972,0.103,0.015,-0.213,2699,0,652,3285,869,1045,404,4075,42,0.000,4,1,8.443,0.325,-7.620,3.160,1.800,-0.149,-0.150,0.961,0.308,0.104,-0.468,0.000,0.000,0.000,0.000,2,2,0,1,7,255,1440,300,1068,1440
stim,1088,1088,0,62666.370,0.972,0.102,0.016,-0.213,2711,0,665,3299,857,975,407,4075,42,0.000,4,1,9.957,0.258,-9.260,3.040,2.040,-0.153,-0.151,0.972,0.258,0.002,-0.468,0.000,0.000,0.000,0.000,2,2,0,1,7,255,1440,300,1073,1440
stim,1088,1088,0,62671.369,0.971,0.102,0.016,-0.213,2711,0,653,3287,872,1031,411,4084,42,0.000,4,1,9.848,0.256,-9.200,2.980,1.860,-0.154,-0.157,0.991,0.256,-0.004,-0.392,0.000,0.000,0.000,0.000,2,2,0,1,7,255,1440,300,1078,1440
stim,1137,1137,0,62676.370,0.971,0.102,0.016,-0.213,2699,0,653,3282,864,1039,407,4080,42,0.000,4,1,8.433,0.224,-7.800,2.920,1.320,-0.161,-0.159,0.992,0.224,-0.008,-0.196,0.000,0.000,0.000,0.000,2,2,0,1,7,255,1440,300,1083,1440
stim,1137,1137,0,62681.369,0.971,0.102,0.017,-0.213,2709,0,676,3289,872,1039,409,4088,42,0.000,4,1,7.777,0.201,-7.060,2.680,1.860,-0.166,-0.159,0.982,0.196,-0.046,-0.196,0.000,0.000,0.000,0.000,2,2,0,1,7,255,1440,300,1088,1440
stim,1137,1137,0,62686.369,0.971,0.102,0.017,-0.214,2707,0,661,3291,878,1045,405,4078,42,0.000,4,1,8.309,0.217,-7.180,2.620,3.260,-0.157,-0.161,0.978,0.196,-0.094,-0.246,0.000,0.000,0.000,0.000,2,2,0,1,7,255,1440,300,1093,1440
stim,1137,1137,0,62691.369,0.971,0.101,0.017,-0.214,2700,0,632,3280,880,1041,405,4069,42,0.000,4,1,9.488,0.232,-8.280,2.620,3.820,-0.144,-0.165,0.978,0.212,-0.094,-0.296,0.000,0.000,0.000,0.000,2,2,0,1,7,255,1440,300,1098,1440
stim,1138,1138,0,62696.369,0.971,0.101,0.018,-0.214,2713,0,623,3289,887,1037,400,4079,42,0.000,4,1,9.791,0.317,-8.780,2.920,3.200,-0.141,-0.154,0.974,0.304,-0.090,-0.308,0.000,0.000,0.000,0.000,2,2,0,1,7,255,1440,300,1103,1440
stim,1138,1138,0,62701.369,0.971,0.101,0.018,-0.214,2700,0,657,3291,884,1037,411,4087,42,0.000,4,1,8.289,0.304,-7.260,3.040,2.600,-0.138,-0.134,0.979,0.304,0.002,-0.368,0.000,0.000,0.000,0.000,2,2,0,1,7,255,1440,300,1108,1440
stim,1139,1139,0,62706.369,0.971,0.100,0.018,-0.214,2697,0,660,3287,887,1041,411,4077,42,0.000,4,1,7.843,0.261,-6.880,3.480,1.440,-0.143,-0.148,0.980,0.258,0.040,-0.368,0.000,0.000,0.000,0.000,2,2,0,1,7,255,1440,300,1113,1440
stim,1139,1139,0,62711.369,0.971,0.100,0.019,-0.214,2712,0,637,3297,880,1043,412,4075,42,0.000,4,1,8.174,0.273,-7.320,3.420,1.240,-0.155,-0.131,0.973,0.248,0.114,-0.368,0.000,0.000,0.000,0.000,2,2,0,1,7,255,1440,300,1118,1440
stim,1140,1140,0,62716.369,0.972,0.100,0.019,-0.214,2713,0,667,3280,893,1048,408,4083,42,0.000,4,1,8.728,0.133,-7.500,3.540,2.720,-0.158,-0.125,0.977,0.068,0.114,-0.348,0.000,0.000,0.000,0.000,2,2,0,1,7,255,1440,300,1123,1440
stim,1140,1140,0,62721.369,0.972,0.099,0.019,-0.214,2708,0,647,3289,888,1020,409,4080,42,0.000,4,1,9.179,0.152,-7.440,3.720,3.880,-0.152,-0.131,0.982,0.068,0.136,-0.348,0.000,0.000,0.000,0.000,2,2,0,1,7,255,1440,300,1128,1440
stim,1169,1169,0,62726.369,0.972,0.099,0.019,-0.214,2703,0,652,3291,891,1031,411,4077,42,0.000,4,1,8.832,0.184,-6.940,3.720,4.000,-0.147,-0.125,0.981,0.098,0.156,-0.324,0.000,0.000,0.000,0.000,2,2,0,1,7,255,1440,300,1133,1440
stim,1169,1169,0,62731.369,0.972,0.098,0.019,-0.215,2707,0,665,3285,893,1033,411,4084,42,0.000,4,1,8.581,0.204,-6.580,4.080,3.700,-0.146,-0.124,0.975,0.104,0.176,-0.324,0.000,0.000,0.000,0.000,2,2,0,1,7,255,1440,300,1138,1440
stim,1169,1169,0,62736.369,0.972,0.098,0.020,-0.215,2713,0,685,3289,893,1035,411,4075,42,0.000,4,1,9.048,0.208,-7.180,4.200,3.560,-0.147,-0.130,0.972,0.110,0.176,-0.386,0.000,0.000,0.000,0.000,2,2,0,1,7,255,1440,300,1143,1440
stim,1169,1169,0,62741.369,0.972,0.098,0.020,-0.215,2707,0,733,3283,901,1043,413,4091,42,0.000,4,1,9.699,0.143,-7.980,4.260,3.500,-0.152,-0.130,0.973,0.104,0.098,-0.386,0.000,0.000,0.000,0.000,2,2,0,1,7,255,1440,300,1148,1440
stim,1169,1169,0,62746.369,0.972,0.097,0.020,-0.215,2703,0,721,3293,891,1039,404,4079,42,0.000,4,1,10.069,0.103,-8.400,4.260,3.560,-0.156,-0.134,0.984,0.072,0.074,-0.364,0.000,0.000,0.000,0.000,2,2,0,1,7,255,1440,300,1153,1440
stim,1169,1169,0,62751.369,0.972,0.097,0.020,-0.215,2707,0,723,3284,885,1044,409,4074,42,0.000,4,1,9.722,0.075,-7.860,4.260,3.820,-0.160,-0.136,0.986,0.056,0.050,-0.244,0.000,0.000,0.000,0.000,2,2,0,1,7,255,1440,300,1158,1440
stim,1199,1199,0,62756.369,0.972,0.097,0.020,-0.215,2701,0,712,3279,879,1046,410,4079,42,0.000,4,1,9.752,0.051,-7.320,4.320,4.780,-0.158,-0.135,0.983,0.046,0.022,-0.242,0.000,0.000,0.000,0.000,2,2,0,1,7,255,1440,300,1163,1440
stim,1199,1199,0,62761.369,0.972,0.096,0.020,-0.216,2716,0,725,3292,861,1017,408,4074,42,0.000,4,1,10.621,0.049,-7.980,4.320,5.520,-0.152,-0.143,0.978,0.046,0.016,-0.242,0.000,0.000,0.000,0.000,2,2,0,1,7,255,1440,300,1168,1440
stim,1199,1199,0,62766.369,0.971,0.096,0.020,-0.216,2707,0,725,3289,860,1011,407,4077,42,0.000,4,1,16.200,0.064,-14.080,5.000,6.260,-0.162,-0.138,0.945,0.046,-0.044,-0.282,0.000,0.000,0.000,0.000,2,2,0,1,7,255,1440,300,1173,1440
stim,1199,1199,0,62771.369,0.971,0.096,0.021,-0.216,2709,0,727,3288,857,1000,407,4079,42,0.000,4,1,12.680,0.126,-10.240,3.900,6.380,-0.139,-0.154,0.996,0.118,-0.044,-0.282,0.000,0.000,0.000,0.000,2,2,0,1,7,255,1440,300,1178,1440
stim,1200,1200,0,62776.369,0.971,0.096,0.021,-0.216,2714,0,725,3288,857,1001,408,4073,42,0.000,4,1,10.332,0.252,-7.860,4.880,4.600,-0.138,-0.142,1.001,0.248,-0.044,-0.114,0.000,0.000,0.000,0.000,2,2,0,1,7,255,1440,300,1183,1440
stim,1200,1200,0,62781.369,0.971,0.096,0.021,-0.216,2707,0,728,3285,855,1003,407,4071,42,0.000,4,1,7.645,0.252,-5.720,4.500,2.340,-0.150,-0.155,0.982,0.248,-0.044,-0.114,0.000,0.000,0.000,0.000,2,2,0,1,7,255,1440,300,1188,1440
stim,1265,1265,0,62786.369,0.971,0.096,0.021,-0.217,2707,0,724,3291,864,1001,408,4071,42,0.000,4,1,8.665,0.224,-6.520,4.880,2.960,-0.166,-0.151,0.963,0.172,-0.144,-0.208,0.000,0.000,0.000,0.000,2,2,0,1,7,255,1440,300,1193,1440
stim,1265,1265,0,62791.369,0.971,0.096,0.021,-0.217,2715,0,727,3299,863,976,408,4083,42,0.000,4,1,11.041,0.200,-8.400,4.640,5.460,-0.162,-0.152,0.969,0.038,-0.196,-0.312,0.000,0.000,0.000,0.000,2,2,0,1,7,255,1440,300,1198,1440
stim,1265,1265,0,62796.369,0.971,0.095,0.022,-0.217,2712,0,715,3299,856,939,407,4071,42,0.000,4,1,11.189,0.200,-7.740,4.880,6.440,-0.143,-0.152,0.983,0.038,-0.196,-0.312,0.000,0.000,0.000,0.000,2,2,0,1,7,255,1440,300,1203,1440
stim,1265,1265,0,62801.369,0.971,0.095,0.022,-0.217,2708,0,720,3289,867,958,405,4079,42,0.000,4,1,9.587,0.248,-6.340,5.300,4.860,-0.133,-0.158,0.979,0.216,-0.122,-0.250,0.000,0.000,0.000,0.000,2,2,0,1,7,255,1440,300,1208,1440
stim,1265,1265,0,62806.369,0.971,0.095,0.022,-0.217,2705,0,711,3287,861,918,408,4077,42,0.000,4,1,8.798,0.248,-6.400,5.420,2.660,-0.143,-0.155,0.968,0.216,-0.122,-0.250,0.000,0.000,0.000,0.000,2,2,0,1,7,255,1440,300,1213,1440
stim,1265,1265,0,62811.369,0.971,0.095,0.022,-0.217,2716,0,695,3289,858,915,404,4076,42,0.000,4,1,9.523,0.257,-7.500,5.480,2.100,-0.158,-0.148,0.966,0.200,-0.162,-0.340,0.000,0.000,0.000,0.000,2,2,0,1,7,255,1440,300,1218,1440
stim,1265,1265,0,62816.369,0.971,0.095,0.022,-0.218,2714,0,672,3292,838,910,407,4087,42,0.000,4,1,10.204,0.165,-7.680,5.660,3.620,-0.163,-0.140,0.974,0.030,-0.162,-0.340,0.000,0.000,0.000,0.000,2,2,0,1,7,255,1440,300,1223,1440
stim,1265,1265,0,62821.369,0.971,0.094,0.022,-0.218,2713,0,671,3291,823,919,405,4077,42,0.000,4,1,10.478,0.114,-7.500,5.540,4.780,-0.158,-0.145,0.979,0.030,-0.110,-0.266,0.000,0.000,0.000,0.000,2,2,0,1,7,255,1440,300,1228,1440
stim,1265,1265,0,62826.369,0.971,0.094,0.022,-0.218,2718,0,663,3287,829,929,384,4073,42,0.000,4,1,10.132,0.105,-7.120,5.740,4.360,-0.152,-0.139,0.977,0.038,-0.098,-0.256,0.000,0.000,0.000,0.000,2,2,0,1,7,255,1440,300,1233,1440
stim,1265,1265,0,62831.369,0.971,0.094,0.022,-0.218,2716,0,647,3289,825,879,389,4080,42,0.000,4,1,9.752,0.060,-6.940,5.660,3.860,-0.155,-0.135,0.976,0.038,-0.046,-0.256,0.000,0.000,0.000,0.000,2,2,0,1,7,255,1440,300,1238,1440
stim,1265,1265,0,62836.369,0.971,0.094,0.022,-0.218,2724,0,637,3289,820,881,391,4087,42,0.000,4,1,11.961,0.038,-9.780,5.820,3.680,-0.161,-0.128,0.967,0.018,-0.034,-0.270,0.000,0.000,0.000,0.000,2,2,0,1,7,255,1440,300,1243,1440
stim,1265,1265,0,62841.369,0.971,0.094,0.022,-0.218,2713,0,665,3284,805,863,381,4087,42,0.000,4,1,14.966,0.038,-13.240,5.940,3.660,-0.163,-0.157,0.965,0.018,-0.034,-0.300,0.000,0.000,0.000,0.000,2,2,0,1,7,255,1440,300,1248,1440
stim,1265,1265,0,62846.369,0.971,0.094,0.023,-0.219,2723,0,699,3299,803,853,383,4088,42,0.000,4,1,11.230,0.041,-8.640,4.900,5.240,-0.157,-0.121,1.002,-0.036,-0.020,-0.300,0.000,0.000,0.000,0.000,2,2,0,1,7,255,1440,300,1253,1440
stim,1265,1265,0,62851.369,0.971,0.093,0.023,-0.219,2712,0,649,3287,791,859,381,4087,42,0.000,4,1,9.452,0.119,-5.820,5.980,4.440,-0.153,-0.126,1.004,0.026,0.116,-0.032,0.000,0.000,0.000,0.000,2,2,0,1,7,255,1440,300,1258,1440
stim,1295,1295,0,62856.369,0.971,0.093,0.023,-0.219,2719,0,628,3288,785,869,377,4087,42,0.000,4,1,8.246,0.117,-5.080,5.420,3.580,-0.161,-0.141,0.974,-0.018,0.116,-0.032,0.000,0.000,0.000,0.000,2,2,0,1,7,255,1440,300,1263,1440
stim,1295,1295,0,62861.369,0.971,0.093,0.023,-0.219,2711,0,677,3305,749,883,377,4095,42,0.000,4,1,9.517,0.048,-6.580,5.460,4.180,-0.168,-0.124,0.960,-0.018,-0.044,-0.254,0.000,0.000,0.000,0.000,2,2,0,1,7,255,1440,300,1268,1440
stim,1295,1295,0,62866.369,0.971,0.092,0.023,-0.219,2716,0,657,3286,749,927,375,4083,42,0.000,4,1,11.493,0.069,-8.780,5.460,5.020,-0.162,-0.132,0.979,-0.046,-0.052,-0.254,0.000,0.000,0.000,0.000,2,2,0,1,7,255,1440,300,1273,1440
stim,1295,1295,0,62871.369,0.971,0.092,0.023,-0.219,2721,0,611,3287,760,923,376,4083,42,0.000,4,1,10.934,0.064,-8.380,5.200,4.720,-0.157,-0.137,0.992,-0.046,-0.044,-0.216,0.000,0.000,0.000,0.000,2,2,0,1,7,255,1440,300,1278,1440
stim,1345,1345,0,62876.369,0.971,0.092,0.023,-0.220,2713,0,629,3301,760,912,377,4090,42,0.000,4,1,9.681,0.059,-6.720,5.500,4.280,-0.160,-0.128,0.986,-0.040,-0.044,-0.156,0.000,0.000,0.000,0.000,2,2,0,1,7,255,1440,300,1283,1440
stim,1345,1345,0,62881.369,0.971,0.092,0.023,-0.220,2727,0,630,3281,758,894,380,4085,42,0.000,4,1,9.554,0.050,-6.580,5.300,4.460,-0.162,-0.140,0.973,-0.024,-0.044,-0.156,0.000,0.000,0.000,0.000,2,2,0,1,7,255,1440,300,1288,1440
stim,1347,1347,0,62886.369,0.971,0.091,0.023,-0.220,2725,0,671,3299,756,929,379,4083,42,0.000,4,1,10.572,0.152,-7.860,5.300,4.680,-0.163,-0.139,0.969,-0.036,-0.148,-0.244,0.000,0.000,0.000,0.000,2,2,0,1,7,255,1440,300,1293,1440
stim,1347,1347,0,62891.369,0.971,0.092,0.023,-0.220,2727,0,603,3291,760,920,381,4089,42,0.000,4,1,15.895,0.158,-14.120,5.700,4.560,-0.162,-0.139,0.949,-0.036,-0.154,-0.278,0.000,0.000,0.000,0.000,2,2,0,1,7,255,1440,300,1298,1440
stim,1348,1348,0,62896.369,0.971,0.092,0.023,-0.220,2715,0,583,3290,755,965,382,4092,42,0.000,4,1,12.476,0.201,-10.560,4.960,4.420,-0.150,-0.160,0.997,-0.036,-0.198,-0.278,0.000,0.000,0.000,0.000,2,2,0,1,7,255,1440,300,1303,1440
stim,1348,1348,0,62901.369,0.971,0.091,0.023,-0.220,2711,0,613,3293,754,967,380,4075,42,0.000,4,1,10.349,0.199,-7.540,5.680,4.240,-0.158,-0.136,0.998,0.020,-0.198,-0.018,0.000,0.000,0.000,0.000,2,2,0,1,7,255,1440,300,1308,1440
stim,1348,1348,0,62906.369,0.971,0.091,0.023,-0.221,2717,0,571,3291,756,977,380,4075,42,0.000,4,1,8.255,0.209,-5.760,5.060,3.060,-0.167,-0.152,0.982,0.020,-0.208,-0.018,0.000,0.000,0.000,0.000,2,2,0,1,7,255,1440,300,1313,1440
stim,1349,1349,0,62911.369,0.971,0.091,0.023,-0.221,2719,0,619,3299,755,984,375,4085,42,0.000,4,1,9.126,0.240,-6.720,5.180,3.360,-0.173,-0.149,0.966,-0.010,-0.240,-0.116,0.000,0.000,0.000,0.000,2,2,0,1,7,255,1440,300,1318,1440
stim,1355,1355,0,62916.369,0.971,0.091,0.023,-0.221,2717,0,615,3290,761,955,379,4083,42,0.000,4,1,10.659,0.261,-8.240,4.860,4.700,-0.171,-0.146,0.968,-0.086,-0.246,-0.244,0.000,0.000,0.000,0.000,2,2,0,1,7,255,1440,300,1323,1440
stim,1355,1355,0,62921.369,0.971,0.091,0.023,-0.221,2713,0,630,3287,763,1004,377,4077,42,0.000,4,1,10.897,0.268,-8.780,4.740,4.380,-0.162,-0.157,0.985,-0.086,-0.254,-0.244,0.000,0.000,0.000,0.000,2,2,0,1,7,255,1440,300,1328,1440
stim,1355,1355,0,62926.369,0.971,0.091,0.023,-0.221,2725,0,573,3289,779,1053,381,4077,42,0.000,4,1,9.835,0.250,-8.200,4.540,2.980,-0.163,-0.155,0.993,0.042,-0.246,-0.082,0.000,0.000,0.000,0.000,2,2,0,1,7,255,1440,300,1333,1440
stim,1355,1355,0,62931.369,0.971,0.091,0.023,-0.221,2712,0,581,3284,761,1049,377,4080,42,0.000,4,1,9.003,0.232,-7.460,4.280,2.660,-0.170,-0.150,0.984,0.042,-0.228,-0.082,0.000,0.000,0.000,0.000,2,2,0,1,7,255,1440,300,1338,1440
stim,1357,1357,0,62936.369,0.971,0.091,0.023,-0.222,2717,0,572,3284,751,1017,376,4075,42,0.000,4,1,9.338,0.226,-7.260,4.460,3.820,-0.169,-0.143,0.975,-0.052,-0.220,-0.092,0.000,0.000,0.000,0.000,2,2,0,1,7,255,1440,300,1343,1440
stim,1357,1357,0,62941.369,0.971,0.091,0.023,-0.222,2716,0,635,3288,741,988,377,4085,42,0.000,4,1,10.116,0.201,-8.040,4.260,4.420,-0.161,-0.147,0.976,-0.052,-0.194,-0.188,0.000,0.000,0.000,0.000,2,2,0,1,7,255,1440,300,1348,1440
stim,1375,1375,0,62946.369,0.971,0.091,0.024,-0.222,2717,0,582,3297,745,926,375,4080,42,0.000,4,1,10.192,0.188,-8.440,4.320,3.740,-0.155,-0.146,0.980,0.012,-0.188,-0.188,0.000,0.000,0.000,0.000,2,2,0,1,7,255,1440,300,1353,1440
stim,1375,1375,0,62951.369,0.971,0.090,0.024,-0.222,2716,0,585,3291,744,938,368,4095,42,0.000,4,1,9.788,0.145,-8.180,4.500,2.940,-0.156,-0.138,0.980,0.020,-0.144,-0.166,0.000,0.000,0.000,0.000,2,2,0,1,7,255,1440,300,1358,1440
stim,1375,1375,0,62956.369,0.971,0.090,0.024,-0.222,2719,0,677,3291,739,910,368,4077,42,0.000,4,1,11.150,0.118,-9.700,4.800,2.680,-0.162,-0.136,0.970,0.020,-0.116,-0.166,0.000,0.000,0.000,0.000,2,2,0,1,7,255,1440,300,1363,1440
stim,1375,1375,0,62961.369,0.970,0.091,0.024,-0.222,2731,0,651,3295,749,972,371,4076,42,0.000,4,1,14.706,0.120,-13.960,4.100,2.140,-0.164,-0.149,0.956,-0.030,-0.116,-0.252,0.000,0.000,0.000,0.000,2,2,0,1,7,255,1440,300,1368,1440
stim,1441,1441,0,62966.369,0.970,0.090,0.024,-0.222,2727,0,657,3293,760,1043,372,4075,42,0.000,4,1,11.732,0.126,-10.500,3.680,3.720,-0.160,-0.130,0.985,-0.050,-0.116,-0.252,0.000,0.000,0.000,0.000,2,2,0,1,7,255,1440,300,1373,1440
stim,1441,1441,0,62971.369,0.970,0.090,0.024,-0.223,2717,0,638,3293,755,1048,368,4083,42,0.000,4,1,10.039,0.044,-7.860,5.200,3.460,-0.158,-0.138,1.003,-0.030,-0.032,-0.120,0.000,0.000,0.000,0.000,2,2,0,1,7,255,1440,300,1378,1440
stim,1441,1441,0,62976.369,0.970,0.090,0.024,-0.223,2717,0,670,3292,760,1051,375,4077,42,0.000,4,1,8.300,0.063,-6.260,4.440,3.160,-0.165,-0.140,0.976,-0.054,-0.032,-0.120,0.000,0.000,0.000,0.000,2,2,0,1,7,255,1440,300,1383,1440
stim,1441,1441,0,62981.369,0.970,0.090,0.024,-0.223,2720,0,653,3293,757,982,373,4067,42,0.000,4,1,9.110,0.162,-6.860,4.620,3.820,-0.168,-0.134,0.961,-0.062,-0.150,-0.182,0.000,0.000,0.000,0.000,2,2,0,1,7,255,1440,300,1388,1440
stim,1441,1441,0,62986.369,0.970,0.090,0.024,-0.223,2727,0,679,3287,761,1004,381,4084,42,0.000,4,1,11.055,0.164,-8.800,4.860,4.600,-0.161,-0.143,0.968,-0.062,-0.152,-0.246,0.000,0.000,0.000,0.000,2,2,0,1,7,255,1440,300,1393,1440
stim,1441,1441,0,62991.369,0.970,0.090,0.024,-0.223,2717,0,620,3287,756,985,381,4084,42,0.000,4,1,10.969,0.152,-8.900,4.720,4.340,-0.156,-0.145,0.981,-0.022,-0.150,-0.246,0.000,0.000,0.000,0.000,2,2,0,1,7,255,1440,300,1398,1440
stim,1441,1441,0,62996.369,0.970,0.090,0.024,-0.223,2717,0,603,3287,755,991,377,4093,42,0.000,4,1,9.977,0.144,-7.660,5.140,3.800,-0.158,-0.139,0.980,0.002,-0.144,-0.142,0.000,0.000,0.000,0.000,2,2,0,1,7,255,1440,300,1403,1440
stim,1441,1441,0,63001.369,0.970,0.089,0.024,-0.223,2720,0,598,3283,729,919,381,4090,42,0.000,4,1,9.611,0.144,-7.280,5.140,3.600,-0.163,-0.146,0.971,0.002,-0.144,-0.142,0.000,0.000,0.000,0.000,2,2,0,1,7,255,1440,300,1408,1440
stim,1441,1441,0,63006.369,0.970,0.089,0.024,-0.224,2733,0,601,3301,741,895,377,4072,42,0.000,4,1,10.261,0.198,-8.000,5.060,3.960,-0.165,-0.143,0.970,-0.026,-0.196,-0.204,0.000,0.000,0.000,0.000,2,2,0,1,7,255,1440,300,1413,1440
stim,1441,1441,0,63011.369,0.970,0.089,0.024,-0.224,2720,0,604,3291,745,927,379,4085,42,0.000,4,1,10.936,0.204,-8.520,5.120,4.560,-0.165,-0.141,0.973,-0.056,-0.196,-0.204,0.000,0.000,0.000,0.000,2,2,0,1,7,255,1440,300,1418,1440
stim,1471,1471,0,63016.369,0.970,0.089,0.024,-0.224,2719,0,564,3287,744,910,376,4088,42,0.000,4,1,10.908,0.173,-8.140,5.340,4.920,-0.160,-0.141,0.975,-0.056,-0.164,-0.188,0.000,0.000,0.000,0.000,2,2,0,1,7,255,1440,300,1423,1440
stim,1471,1471,0,63021.369,0.970,0.089,0.024,-0.224,2727,0,593,3287,744,893,382,4095,42,0.000,4,1,10.590,0.164,-7.700,5.580,4.660,-0.157,-0.146,0.972,-0.012,-0.164,-0.188,0.000,0.000,0.000,0.000,2,2,0,1,7,255,1440,300,1428,1440
stim,1471,1471,0,63026.369,0.970,0.089,0.024,-0.224,2727,0,537,3300,733,889,381,4095,42,0.000,4,1,10.652,0.182,-8.000,5.580,4.280,-0.159,-0.145,0.966,-0.002,-0.182,-0.200,0.000,0.000,0.000,0.000,2,2,0,1,7,255,1440,300,1433,1440
stim,1471,1471,0,63031.369,0.970,0.089,0.024,-0.225,2719,0,573,3292,735,889,376,4081,42,0.000,4,1,11.278,0.182,-8.520,5.980,4.340,-0.161,-0.140,0.966,-0.002,-0.182,-0.250,0.000,0.000,0.000,0.000,2,2,0,1,7,255,1440,300,1438,1440
stim,1471,1471,1,63036.370,0.970,0.089,0.024,-0.225,2729,0,593,3307,735,920,376,4083,42,0.000,4,1,11.419,0.163,-8.500,5.860,4.880,-0.160,-0.138,0.972,-0.030,-0.160,-0.250,0.000,0.000,0.000,0.000,2,2,1,1,7,255,1440,300,3,1440
stim,1471,1471,1,63041.369,0.970,0.089,0.024,-0.225,2734,0,595,3287,738,901,379,4095,42,0.000,4,1,13.185,0.133,-10.260,6.460,5.180,-0.157,-0.134,0.965,-0.030,-0.130,-0.258,0.000,0.000,0.000,0.000,2,2,1,1,7,255,1440,300,8,1440
stim,1471,1471,1,63046.369,0.970,0.089,0.025,-0.225,2729,0,573,3297,716,935,378,4092,42,0.000,4,1,16.441,0.133,-15.000,5.700,3.580,-0.149,-0.152,0.940,-0.026,-0.130,-0.274,0.000,0.000,0.000,0.000,2,2,1,1,7,255,1440,300,13,1440
stim,1471,1471,1,63051.369,0.970,0.089,0.025,-0.225,2733,0,599,3293,745,1006,377,4095,42,0.000,4,1,13.820,0.133,-10.880,7.160,4.620,-0.140,-0.136,0.984,0.088,-0.100,-0.274,0.000,0.000,0.000,0.000,2,2,1,1,7,255,1440,300,18,1440
stim,1471,1471,1,63056.369,0.970,0.089,0.025,-0.225,2747,0,595,3313,750,1015,376,4095,42,0.000,4,1,10.477,0.240,-7.020,7.760,0.520,-0.149,-0.159,0.998,0.146,-0.190,-0.120,0.000,0.000,0.000,0.000,2,2,1,1,7,255,1440,300,23,1440
stim,1471,1471,1,63061.369,0.970,0.089,0.025,-0.225,2729,0,587,3301,738,1001,363,4095,42,0.000,4,1,9.515,0.240,-6.140,7.200,1.000,-0.187,-0.156,0.962,0.146,-0.190,-0.120,0.000,0.000,0.000,0.000,2,2,1,1,7,255,1440,300,28,1440
stim,1504,1504,1,63066.369,0.970,0.089,0.024,-0.226,2727,0,567,3292,737,987,365,4085,42,0.000,4,1,11.283,0.348,-7.040,7.120,5.200,-0.192,-0.139,0.956,-0.204,-0.282,-0.200,0.000,0.000,0.000,0.000,2,2,1,1,7,255,1440,300,33,1440
stim,1504,1504,1,63071.369,0.970,0.089,0.024,-0.226,2733,0,575,3307,747,1042,367,4095,42,0.000,4,1,13.471,0.433,-8.200,7.220,7.880,-0.170,-0.166,0.971,-0.204,-0.382,-0.200,0.000,0.000,0.000,0.000,2,2,1,1,7,255,1440,300,38,1440
stim,1504,1504,1,63076.369,0.970,0.089,0.024,-0.226,2728,0,571,3333,739,986,380,4088,42,0.000,4,1,12.453,0.282,-7.940,7.200,6.340,-0.156,-0.157,0.985,0.006,-0.282,-0.128,0.000,0.000,0.000,0.000,2,2,1,1,7,255,1440,300,43,1440
stim,1504,1504,1,63081.369,0.970,0.089,0.024,-0.226,2739,0,551,3303,747,1033,376,4095,42,0.000,4,1,11.734,0.221,-8.280,7.140,4.260,-0.159,-0.148,0.979,0.034,-0.218,-0.108,0.000,0.000,0.000,0.000,2,2,1,1,7,255,1440,300,48,1440
stim,1567,1567,1,63086.369,0.970,0.089,0.024,-0.227,2730,0,555,3295,735,971,368,4091,42,0.000,4,1,15.966,0.225,-13.820,7.300,3.260,-0.160,-0.166,0.933,0.056,-0.218,-0.108,0.000,0.000,0.000,0.000,2,2,1,1,7,255,1440,300,53,1440
stim,1567,1567,1,63091.369,0.969,0.090,0.024,-0.227,2733,0,571,3294,743,970,364,4095,42,0.000,4,1,13.331,0.423,-11.040,6.860,2.960,-0.172,-0.176,0.975,0.034,-0.422,-0.108,0.000,0.000,0.000,0.000,2,2,1,1,7,255,1440,300,58,1440
stim,1567,1567,1,63096.369,0.969,0.090,0.024,-0.227,2741,0,584,3324,733,955,363,4095,42,0.000,4,1,12.952,0.423,-9.740,7.760,3.560,-0.179,-0.133,1.009,0.032,-0.422,-0.062,0.000,0.000,0.000,0.000,2,2,1,1,7,255,1440,300,63,1440
stim,1567,1567,1,63101.370,0.969,0.090,0.024,-0.227,2739,0,568,3303,733,944,363,4087,42,0.000,4,1,11.838,0.237,-3.860,7.680,8.140,-0.171,-0.156,0.989,-0.022,-0.236,0.030,0.000,0.000,0.000,0.000,2,2,1,1,7,255,1440,300,68,1440
stim,1567,1567,1,63106.369,0.969,0.089,0.024,-0.228,2745,0,569,3325,735,888,369,4095,42,0.000,4,1,11.337,0.237,-5.140,7.600,6.660,-0.164,-0.161,0.960,-0.022,-0.236,0.030,0.000,0.000,0.000,0.000,2,2,1,1,7,255,1440,300,73,1440
stim,1567,1567,1,63111.369,0.969,0.089,0.024,-0.228,2728,0,541,3292,735,912,355,4095,42,0.000,4,1,12.247,0.279,-4.880,9.060,6.640,-0.154,-0.156,0.944,0.040,-0.276,-0.244,0.000,0.000,0.000,0.000,2,2,1,1,7,255,1440,300,78,1440
stim,1567,1567,1,63116.369,0.969,0.089,0.024,-0.228,2740,0,505,3285,715,970,365,4093,42,0.000,4,1,13.381,0.279,-9.760,7.520,5.220,-0.163,-0.143,0.963,0.040,-0.276,-0.246,0.000,0.000,0.000,0.000,2,2,1,1,7,255,1440,300,83,1440
stim,1567,1567,1,63121.369,0.969,0.090,0.023,-0.228,2727,0,548,3299,704,911,365,4091,42,0.000,4,1,13.782,0.289,-8.220,10.060,4.600,-0.161,-0.164,0.972,0.086,-0.276,-0.246,0.000,0.000,0.000,0.000,2,2,1,1,7,255,1440,300,88,1440
stim,1567,1567,1,63126.370,0.969,0.090,0.023,-0.228,2745,0,530,3317,711,947,355,4084,42,0.000,4,1,17.741,0.293,-16.080,6.920,2.880,-0.170,-0.159,0.939,-0.022,-0.292,-0.246,0.000,0.000,0.000,0.000,2,2,1,1,7,255,1440,300,93,1440
stim,1567,1567,1,63131.369,0.969,0.090,0.023,-0.229,2733,0,536,3317,720,955,346,4077,42,0.000,4,1,14.636,0.299,-9.020,9.960,5.800,-0.164,-0.155,1.007,0.064,-0.292,-0.126,0.000,0.000,0.000,0.000,2,2,1,1,7,255,1440,300,98,1440
stim,1567,1567,1,63136.369,0.969,0.090,0.023,-0.229,2745,0,535,3301,693,921,352,4083,42,0.000,4,1,10.798,0.126,-3.380,8.780,5.300,-0.182,-0.126,0.982,-0.048,-0.116,-0.052,0.000,0.000,0.000,0.000,2,2,1,1,7,255,1440,300,103,1440
stim,1567,1567,1,63141.369,0.969,0.090,0.023,-0.229,2735,0,485,3300,712,971,358,4095,42,0.000,4,1,13.328,0.123,-3.860,10.000,7.920,-0.172,-0.172,0.972,0.040,-0.116,-0.052,0.000,0.000,0.000,0.000,2,2,1,1,7,255,1440,300,108,1440
stim,1567,1567,1,63146.369,0.969,0.090,0.022,-0.229,2729,0,497,3286,703,928,349,4079,42,0.000,4,1,13.977,0.209,-8.500,9.120,6.320,-0.172,-0.133,0.938,-0.154,-0.142,-0.086,0.000,0.000,0.000,0.000,2,2,1,1,7,255,1440,300,113,1440
stim,1567,1567,1,63151.369,0.969,0.090,0.022,-0.230,2739,0,471,3301,695,925,345,4075,42,0.000,4,1,15.508,0.338,-10.800,9.840,5.200,-0.157,-0.167,0.950,0.040,-0.336,-0.324,0.000,0.000,0.000,0.000,2,2,1,1,7,255,1440,300,118,1440
stim,1583,1583,1,63156.369,0.969,0.090,0.022,-0.230,2733,0,396,3292,697,923,345,4079,42,0.000,4,1,14.453,0.142,-8.520,10.540,5.020,-0.163,-0.140,0.975,0.002,-0.142,-0.324,0.000,0.000,0.000,0.000,2,2,1,1,7,255,1440,300,123,1440
stim,1583,1583,1,63161.369,0.969,0.090,0.022,-0.230,2747,0,403,3321,669,902,343,4095,42,0.000,4,1,14.385,0.112,-8.940,10.040,5.120,-0.178,-0.142,0.981,0.002,-0.112,-0.124,0.000,0.000,0.000,0.000,2,2,1,1,7,255,1440,300,128,1440
stim,1583,1583,1,63166.369,0.969,0.090,0.022,-0.230,2733,0,375,3287,667,941,349,4095,42,0.000,4,1,15.491,0.112,-9.280,10.800,6.100,-0.171,-0.161,0.967,0.002,-0.112,-0.124,0.000,0.000,0.000,0.000,2,2,1,1,7,255,1440,300,133,1440
stim,1583,1583,1,63171.369,0.969,0.090,0.021,-0.231,2733,0,353,3293,688,951,341,4087,42,0.000,4,1,14.622,0.121,-4.980,11.760,7.120,-0.163,-0.129,0.960,-0.046,-0.112,-0.144,0.000,0.000,0.000,0.000,2,2,1,1,7,255,1440,300,138,1440
stim,1647,1647,1,63176.369,0.969,0.089,0.021,-0.231,2729,0,347,3295,653,880,339,4087,42,0.000,4,1,15.273,0.017,-4.680,12.720,7.040,-0.158,-0.133,0.961,0.014,-0.010,-0.268,0.000,0.000,0.000,0.000,2,2,1,1,7,255,1440,300,143,1440
stim,1647,1647,1,63181.369,0.969,0.089,0.021,-0.231,2735,0,330,3308,670,1024,333,4095,42,0.000,4,1,13.160,0.010,-4.360,11.720,4.100,-0.178,-0.167,0.965,0.000,-0.010,-0.268,0.000,0.000,0.000,0.000,2,2,1,1,7,255,1440,300,148,1440
stim,1647,1647,1,63186.369,0.969,0.089,0.020,-0.231,2735,0,339,3303,665,1047,331,4089,42,0.000,4,1,15.232,0.200,-7.960,11.820,5.380,-0.200,-0.135,0.955,0.000,-0.200,-0.240,0.000,0.000,0.000,0.000,2,2,1,1,7,255,1440,300,153,1440
stim,1648,1648,1,63191.369,0.968,0.090,0.020,-0.231,2739,0,340,3292,653,991,326,4091,42,0.000,4,1,18.191,0.366,-12.200,11.780,6.580,-0.182,-0.186,0.956,0.000,-0.366,-0.166,0.000,0.000,0.000,0.000,2,2,1,1,7,255,1440,300,158,1440
stim,1648,1648,1,63196.369,0.968,0.090,0.020,-0.232,2731,0,287,3297,607,1043,331,4089,42,0.000,4,1,15.598,0.208,-5.600,12.380,7.660,-0.184,-0.152,0.997,-0.056,-0.200,-0.166,0.000,0.000,0.000,0.000,2,2,1,1,7,255,1440,300,163,1440
stim,1648,1648,1,63201.369,0.968,0.090,0.019,-0.232,2742,0,327,3292,632,1048,312,4089,42,0.000,4,1,15.649,0.164,-2.400,12.660,8.880,-0.184,-0.147,0.982,-0.056,-0.154,0.010,0.000,0.000,0.000,0.000,2,2,1,1,7,255,1440,300,168,1440
stim,1648,1648,1,63206.369,0.968,0.090,0.019,-0.232,2764,0,317,3293,617,1005,331,4095,42,0.000,4,1,15.539,0.164,-2.280,12.560,8.860,-0.178,-0.159,0.953,-0.056,-0.154,0.010,0.000,0.000,0.000,0.000,2,2,1,1,7,255,1440,300,173,1440
stim,1648,1648,1,63211.369,0.968,0.090,0.019,-0.233,2729,0,283,3299,583,969,302,4095,42,0.000,4,1,16.490,0.306,-10.520,11.620,5.120,-0.165,-0.177,0.935,-0.004,-0.306,-0.250,0.000,0.000,0.000,0.000,2,2,1,1,7,255,1440,300,178,1440
stim,1663,1663,1,63216.369,0.968,0.090,0.018,-0.233,2741,0,252,3315,590,1019,312,4091,42,0.000,4,1,14.260,0.306,-7.260,12.100,2.060,-0.185,-0.163,0.981,-0.004,-0.306,-0.250,0.000,0.000,0.000,0.000,2,2,1,1,7,255,1440,300,183,1440
stim,1663,1663,1,63221.369,0.968,0.090,0.018,-0.233,2731,0,293,3288,571,989,311,4092,42,0.000,4,1,13.917,0.270,-5.660,12.320,3.140,-0.220,-0.132,0.996,-0.014,-0.270,0.034,0.000,0.000,0.000,0.000,2,2,1,1,7,255,1440,300,188,1440
stim,1663,1663,1,63226.369,0.968,0.090,0.017,-0.233,2744,0,285,3299,571,967,309,4095,42,0.000,4,1,14.128,0.426,-6.260,11.620,5.040,-0.228,-0.165,0.998,-0.330,-0.270,0.186,0.000,0.000,0.000,0.000,2,2,1,1,7,255,1440,300,193,1440
stim,1663,1663,1,63231.369,0.968,0.091,0.017,-0.233,2743,0,265,3283,549,959,301,4095,42,0.000,4,1,18.940,0.525,-15.520,10.560,2.520,-0.207,-0.188,0.995,-0.330,-0.408,0.254,0.000,0.000,0.000,0.000,2,2,1,1,7,255,1440,300,198,1440
stim,1663,1663,1,63236.369,0.968,0.091,0.017,-0.233,2748,0,240,3277,539,991,301,4095,42,0.000,4,1,12.551,0.465,-7.680,9.920,0.380,-0.211,-0.145,1.031,-0.224,-0.408,0.286,0.000,0.000,0.000,0.000,2,2,1,1,7,255,1440,300,203,1440
stim,1663,1663,1,63241.369,0.968,0.091,0.016,-0.233,2749,0,220,3279,506,951,300,4095,42,0.000,4,1,11.263,0.557,-6.260,9.360,0.260,-0.241,-0.175,0.993,-0.224,-0.510,0.274,0.000,0.000,0.000,0.000,2,2,1,1,7,255,1440,300,208,1440
stim,1680,1680,1,63246.369,0.968,0.091,0.016,-0.233,2746,0,275,3285,503,987,311,4095,42,0.000,4,1,10.391,0.498,-4.780,7.940,4.700,-0.243,-0.147,0.980,-0.380,-0.322,0.274,0.000,0.000,0.000,0.000,2,2,1,1,7,255,1440,300,213,1440
stim,1680,1680,1,63251.369,0.968,0.091,0.015,-0.234,2787,0,281,3309,488,1034,312,4095,42,0.000,4,1,14.535,0.498,-6.960,8.220,9.760,-0.218,-0.150,0.966,-0.380,-0.322,0.102,0.000,0.000,0.000,0.000,2,2,1,1,7,255,1440,300,218,1440
stim,1680,1680,1,63256.369,0.968,0.091,0.015,-0.234,2762,0,221,3331,506,1083,307,4095,42,0.000,4,1,14.232,0.407,-4.820,8.260,10.540,-0.186,-0.158,0.979,-0.292,-0.284,-0.008,0.000,0.000,0.000,0.000,2,2,1,1,7,255,1440,300,223,1440
stim,1680,1680,1,63261.369,0.968,0.091,0.015,-0.234,2759,0,239,3291,519,1047,303,4095,42,0.000,4,1,14.746,0.192,-9.440,8.680,7.280,-0.171,-0.154,0.957,0.040,-0.188,-0.078,0.000,0.000,0.000,0.000,2,2,1,1,7,255,1440,300,228,1440
stim,1744,1744,1,63266.369,0.968,0.091,0.015,-0.234,2760,0,259,3289,547,1048,297,4095,42,0.000,4,1,10.848,0.192,-4.720,8.780,4.280,-0.173,-0.152,0.983,0.124,-0.146,-0.008,0.000,0.000,0.000,0.000,2,2,1,1,7,255,1440,300,233,1440
stim,1744,1744,1,63271.369,0.968,0.091,0.015,-0.235,2761,0,245,3288,519,1093,279,4095,42,0.000,4,1,12.875,0.192,-9.900,7.980,2.020,-0.196,-0.144,0.959,0.124,-0.146,-0.196,0.000,0.000,0.000,0.000,2,2,1,1,7,255,1440,300,238,1440
stim,1744,1744,1,63276.369,0.968,0.091,0.015,-0.235,2759,0,250,3292,459,1129,280,4095,42,0.000,4,1,12.317,0.186,-8.000,9.300,1.100,-0.200,-0.149,0.981,-0.110,-0.150,-0.002,0.000,0.000,0.000,0.000,2,2,1,1,7,255,1440,300,243,1440
stim,1744,1744,1,63281.369,0.968,0.091,0.015,-0.235,2763,0,219,3287,441,1127,275,4095,42,0.000,4,1,12.052,0.206,-8.720,8.180,1.520,-0.210,-0.155,0.978,-0.134,-0.156,0.032,0.000,0.000,0.000,0.000,2,2,1,1,7,255,1440,300,248,1440
stim,1744,1744,1,63286.370,0.968,0.091,0.014,-0.235,2773,0,216,3290,475,1111,279,4095,42,0.000,4,1,10.310,0.256,-5.520,8.160,3.040,-0.218,-0.148,0.989,-0.170,-0.192,0.034,0.000,0.000,0.000,0.000,2,2,1,1,7,255,1440,300,253,1440
stim,1744,1744,1,63291.369,0.968,0.091,0.014,-0.235,2771,0,221,3288,455,1132,265,4095,42,0.000,4,1,10.853,0.306,-5.640,8.140,4.440,-0.212,-0.143,0.969,-0.238,-0.192,0.034,0.000,0.000,0.000,0.000,2,2,1,1,7,255,1440,300,258,1440
stim,1776,1776,1,63296.369,0.968,0.091,0.014,-0.235,2770,0,231,3291,472,1166,268,4095,42,0.000,4,1,11.564,0.306,-4.280,8.200,6.940,-0.208,-0.151,0.968,-0.238,-0.192,-0.072,0.000,0.000,0.000,0.000,2,2,1,1,7,255,1440,300,263,1440
stim,1776,1776,1,63301.369,0.968,0.091,0.014,-0.235,2779,0,211,3295,457,1203,259,4095,42,0.000,4,1,12.304,0.282,-6.780,8.540,5.700,-0.187,-0.167,0.954,-0.160,-0.232,-0.074,0.000,0.000,0.000,0.000,2,2,1,1,7,255,1440,300,268,1440
stim,1776,1776,1,63306.369,0.968,0.090,0.013,-0.236,2777,0,205,3297,460,1182,251,4095,42,0.000,4,1,10.273,0.260,-2.920,7.620,6.240,-0.207,-0.153,0.979,-0.118,-0.232,-0.074,0.000,0.000,0.000,0.000,2,2,1,1,7,255,1440,300,273,1440
stim,1776,1776,1,63311.369,0.967,0.090,0.013,-0.236,2775,0,202,3288,457,1180,255,4095,42,0.000,4,1,11.329,0.330,-6.440,7.480,5.560,-0.217,-0.158,0.964,-0.118,-0.308,-0.076,0.000,0.000,0.000,0.000,2,2,1,1,7,255,1440,300,278,1440
stim,1776,1776,1,63316.369,0.967,0.091,0.013,-0.236,2776,0,213,3301,475,1197,256,4095,42,0.000,4,1,11.967,0.337,-8.580,7.880,2.740,-0.196,-0.169,0.969,-0.118,-0.316,-0.054,0.000,0.000,0.000,0.000,2,2,1,1,7,255,1440,300,283,1440
stim,1776,1776,1,63321.369,0.967,0.091,0.013,-0.236,2788,0,175,3307,471,1200,255,4095,42,0.000,4,1,10.334,0.329,-6.960,6.840,3.400,-0.208,-0.162,0.970,-0.090,-0.316,-0.054,0.000,0.000,0.000,0.000,2,2,1,1,7,255,1440,300,288,1440
stim,1776,1776,1,63326.369,0.967,0.091,0.013,-0.236,2808,0,185,3291,472,1145,263,4095,42,0.000,4,1,11.965,0.317,-9.580,7.060,-1.240,-0.205,-0.172,0.967,-0.018,-0.316,-0.048,0.000,0.000,0.000,0.000,2,2,1,1,7,255,1440,300,293,1440
stim,1776,1776,1,63331.369,0.967,0.091,0.013,-0.236,2788,0,243,3307,453,1165,259,4095,42,0.000,4,1,10.156,0.375,-8.220,5.880,-1.000,-0.225,-0.165,0.970,-0.090,-0.364,-0.028,0.000,0.000,0.000,0.000,2,2,1,1,7,255,1440,300,298,1440
stim,1776,1776,0,63336.369,0.967,0.091,0.012,-0.236,2777,0,240,3292,473,1188,240,4095,42,0.000,4,1,10.356,0.424,-8.800,5.460,0.040,-0.231,-0.158,0.977,-0.218,-0.364,0.014,0.000,0.000,0.000,0.000,2,2,0,1,7,255,1440,300,303,1440
stim,1776,1776,0,63341.369,0.967,0.091,0.012,-0.236,2776,0,250,3301,507,1113,269,4095,42,0.000,4,1,9.576,0.422,-7.640,5.620,1.320,-0.231,-0.139,0.982,-0.290,-0.306,0.074,0.000,0.000,0.000,0.000,2,2,0,1,7,255,1440,300,308,1440
stim,1776,1776,0,63346.369,0.967,0.091,0.012,-0.236,2781,0,209,3299,539,1192,273,4095,42,0.000,4,1,7.849,0.403,-4.860,5.180,3.340,-0.239,-0.143,0.983,-0.356,-0.188,0.094,0.000,0.000,0.000,0.000,2,2,0,1,7,255,1440,300,313,1440
stim,1776,1776,0,63351.369,0.967,0.091,0.012,-0.236,2776,0,200,3309,531,1191,273,4095,42,0.000,4,1,7.667,0.406,-4.000,4.020,5.160,-0.235,-0.138,0.979,-0.380,-0.144,0.094,0.000,0.000,0.000,0.000,2,2,0,1,7,255,1440,300,318,1440
stim,1776,1776,0,63356.369,0.967,0.091,0.011,-0.237,2777,0,253,3293,523,1196,269,4095,42,0.000,4,1,8.134,0.409,-4.980,3.700,5.260,-0.222,-0.144,0.977,-0.380,-0.150,0.066,0.000,0.000,0.000,0.000,2,2,0,1,7,255,1440,300,323,1440
stim,1776,1776,0,63361.369,0.967,0.091,0.011,-0.237,2791,0,284,3301,523,1175,275,4095,42,0.000,4,1,9.500,0.278,-7.400,4.920,3.360,-0.197,-0.135,0.971,-0.238,-0.144,0.024,0.000,0.000,0.000,0.000,2,2,0,1,7,255,1440,300,328,1440
stim,1794,1794,0,63366.369,0.967,0.091,0.012,-0.237,2781,0,271,3295,522,1178,272,4095,42,0.000,4,1,12.620,0.065,-11.660,4.540,-1.640,-0.168,-0.146,0.953,-0.064,-0.010,-0.100,0.000,0.000,0.000,0.000,2,2,0,1,7,255,1440,300,333,1440
stim,1794,1794,0,63371.369,0.967,0.091,0.012,-0.237,2788,0,273,3304,521,1166,283,4095,42,0.000,4,1,13.310,0.017,-11.160,3.180,-6.520,-0.199,-0.162,0.957,0.014,-0.010,-0.170,0.000,0.000,0.000,0.000,2,2,0,1,7,255,1440,300,338,1440
stim,1795,1795,0,63376.369,0.967,0.091,0.012,-0.236,2783,0,271,3301,524,1181,277,4095,42,0.000,4,1,10.500,0.017,-9.480,2.500,-3.760,-0.255,-0.113,0.983,0.014,-0.010,-0.170,0.000,0.000,0.000,0.000,2,2,0,1,7,255,1440,300,343,1440
stim,1795,1795,0,63381.369,0.967,0.091,0.011,-0.236,2783,0,276,3313,533,1226,273,4095,42,0.000,4,1,7.631,0.608,-6.840,1.640,2.960,-0.259,-0.124,0.998,-0.604,-0.070,0.104,0.000,0.000,0.000,0.000,2,2,0,1,7,255,1440,300,348,1440
stim,1856,1856,0,63386.369,0.967,0.090,0.011,-0.237,2788,0,272,3300,529,1235,293,4095,42,0.000,4,1,9.191,0.608,-3.780,0.980,8.320,-0.228,-0.141,0.985,-0.604,-0.070,0.116,0.000,0.000,0.000,0.000,2,2,0,1,7,255,1440,300,353,1440
stim,1856,1856,0,63391.369,0.967,0.090,0.011,-0.237,2783,0,265,3307,531,1237,296,4095,42,0.000,4,1,9.405,0.297,-3.460,2.140,8.480,-0.194,-0.147,0.956,-0.270,-0.124,0.116,0.000,0.000,0.000,0.000,2,2,0,1,7,255,1440,300,358,1440
stim,1871,1871,0,63396.369,0.967,0.090,0.011,-0.237,2787,0,280,3299,529,1215,311,4095,42,0.000,4,1,10.894,0.129,-9.260,4.940,2.920,-0.170,-0.164,0.932,0.012,-0.128,-0.220,0.000,0.000,0.000,0.000,2,2,0,1,7,255,1440,300,363,1440
stim,1871,1871,0,63401.369,0.967,0.091,0.012,-0.237,2791,0,268,3312,541,1237,300,4095,42,0.000,4,1,11.379,0.346,-11.000,2.240,-1.860,-0.175,-0.187,0.954,0.262,-0.226,-0.220,0.000,0.000,0.000,0.000,2,2,0,1,7,255,1440,300,368,1440
stim,1871,1871,0,63406.369,0.967,0.091,0.012,-0.237,2789,0,284,3305,535,1239,305,4095,42,0.000,4,1,11.297,0.346,-10.620,1.320,-3.620,-0.221,-0.135,0.981,0.262,-0.226,-0.200,0.000,0.000,0.000,0.000,2,2,0,1,7,255,1440,300,373,1440
stim,1871,1871,0,63411.369,0.967,0.091,0.012,-0.237,2785,0,285,3304,538,1241,307,4095,42,0.000,4,1,6.918,0.266,-6.500,1.560,-1.780,-0.236,-0.123,1.006,-0.262,-0.044,0.060,0.000,0.000,0.000,0.000,2,2,0,1,7,255,1440,300,378,1440
stim,1871,1871,0,63416.370,0.967,0.091,0.012,-0.237,2793,0,296,3304,535,1251,309,4095,42,0.000,4,1,6.196,0.266,-3.920,3.760,2.980,-0.228,-0.168,0.981,-0.262,-0.044,0.128,0.000,0.000,0.000,0.000,2,2,0,1,7,255,1440,300,383,1440
stim,1871,1871,0,63421.369,0.967,0.091,0.012,-0.237,2795,0,301,3303,527,1270,324,4095,42,0.000,4,1,5.521,0.390,-4.520,0.260,3.160,-0.208,-0.171,0.939,-0.154,-0.358,0.128,0.000,0.000,0.000,0.000,2,2,0,1,7,255,1440,300,388,1440
stim,1871,1871,0,63426.369,0.967,0.090,0.012,-0.237,2787,0,281,3313,549,1280,323,4095,42,0.000,4,1,6.789,0.383,-6.160,2.840,0.280,-0.194,-0.117,0.951,-0.136,-0.358,-0.296,0.000,0.000,0.000,0.000,2,2,0,1,7,255,1440,300,393,1440
stim,1871,1871,0,63431.369,0.967,0.091,0.012,-0.238,2787,0,300,3304,549,1291,315,4095,42,0.000,4,1,7.779,0.407,-7.140,1.000,2.920,-0.222,-0.205,0.971,-0.026,-0.406,-0.296,0.000,0.000,0.000,0.000,2,2,0,1,7,255,1440,300,398,1440
stim,1871,1871,0,63436.369,0.967,0.091,0.012,-0.238,2789,0,313,3301,574,1331,323,4095,42,0.000,4,1,7.974,0.034,-7.360,1.300,2.780,-0.199,-0.145,0.982,-0.016,-0.030,0.040,0.000,0.000,0.000,0.000,2,2,0,1,7,255,1440,300,403,1440
stim,1871,1871,0,63441.369,0.967,0.091,0.012,-0.238,2789,0,267,3316,586,1334,320,4095,42,0.000,4,1,3.495,0.294,-3.260,1.120,-0.580,-0.217,-0.163,0.969,-0.016,-0.294,0.040,0.000,0.000,0.000,0.000,2,2,0,1,7,255,1440,300,408,1440
stim,1871,1871,0,63446.369,0.967,0.091,0.012,-0.238,2786,0,314,3296,589,1352,327,4095,42,0.000,4,1,6.755,0.313,-5.520,0.320,3.880,-0.224,-0.170,0.958,-0.106,-0.294,-0.014,0.000,0.000,0.000,0.000,2,2,0,1,7,255,1440,300,413,1440
stim,1871,1871,0,63451.369,0.967,0.091,0.012,-0.238,2783,0,279,3305,597,1339,317,4095,42,0.000,4,1,6.134,0.416,-5.440,1.600,2.340,-0.211,-0.188,0.970,-0.106,-0.402,-0.014,0.000,0.000,0.000,0.000,2,2,0,1,7,255,1440,300,418,1440
stim,1892,1892,0,63456.370,0.967,0.091,0.012,-0.238,2791,0,233,3301,595,1352,315,4095,42,0.000,4,1,8.338,0.402,-7.740,1.720,2.580,-0.200,-0.159,0.952,-0.006,-0.402,-0.086,0.000,0.000,0.000,0.000,2,2,0,1,7,255,1440,300,423,1440
stim,1892,1892,0,63461.369,0.967,0.091,0.013,-0.238,2789,0,269,3317,601,1363,318,4095,42,0.000,4,1,6.605,0.247,-6.580,0.560,0.140,-0.194,-0.170,0.969,0.050,-0.242,-0.048,0.000,0.000,0.000,0.000,2,2,0,1,7,255,1440,300,428,1440
stim,1892,1892,0,63466.369,0.967,0.091,0.013,-0.238,2783,0,285,3313,595,1375,312,4095,42,0.000,4,1,6.890,0.243,-6.620,0.740,-1.760,-0.204,-0.170,0.969,0.024,-0.242,-0.048,0.000,0.000,0.000,0.000,2,2,0,1,7,255,1440,300,433,1440
stim,1892,1892,0,63471.369,0.967,0.091,0.013,-0.238,2783,0,363,3307,597,1381,304,4095,42,0.000,4,1,6.141,0.283,-5.500,0.240,-2.720,-0.230,-0.160,0.969,0.024,-0.282,-0.022,0.000,0.000,0.000,0.000,2,2,0,1,7,255,1440,300,438,1440
stim,1952,1952,0,63476.369,0.967,0.091,0.013,-0.238,2787,0,364,3307,609,1370,325,4095,42,0.000,4,1,7.195,0.377,-6.840,-0.240,2.220,-0.228,-0.135,0.969,-0.250,-0.282,-0.022,0.000,0.000,0.000,0.000,2,2,0,1,7,255,1440,300,443,1440
stim,1952,1952,0,63481.369,0.967,0.091,0.013,-0.238,2787,0,377,3308,615,1373,330,4095,42,0.000,4,1,5.783,0.391,-4.500,0.300,3.620,-0.208,-0.186,0.978,-0.250,-0.300,0.014,0.000,0.000,0.000,0.000,2,2,0,1,7,255,1440,300,448,1440
stim,1952,1952,0,63486.369,0.967,0.090,0.013,-0.238,2781,0,381,3315,618,1392,331,4095,42,0.000,4,1,5.658,0.102,-4.740,-0.420,3.060,-0.194,-0.131,0.969,-0.068,-0.076,-0.038,0.000,0.000,0.000,0.000,2,2,0,1,7,255,1440,300,453,1440
stim,1952,1952,0,63491.369,0.967,0.091,0.013,-0.239,2795,0,384,3305,621,1390,333,4095,42,0.000,4,1,4.592,0.410,-4.000,0.500,2.200,-0.189,-0.196,0.961,0.070,-0.404,-0.078,0.000,0.000,0.000,0.000,2,2,0,1,7,255,1440,300,458,1440
stim,1952,1952,0,63496.369,0.967,0.090,0.013,-0.239,2799,0,407,3303,621,1397,339,4095,42,0.000,4,1,4.562,0.166,-4.420,0.800,-0.800,-0.202,-0.156,0.966,-0.034,-0.162,-0.082,0.000,0.000,0.000,0.000,2,2,0,1,7,255,1440,300,463,1440
stim,1952,1952,0,63501.369,0.967,0.090,0.014,-0.239,2793,0,393,3315,621,1416,339,4095,42,0.000,4,1,5.377,0.166,-5.320,-0.540,0.560,-0.210,-0.130,0.954,-0.034,-0.162,-0.082,0.000,0.000,0.000,0.000,2,2,0,1,7,255,1440,300,468,1440
stim,1952,1952,0,63506.369,0.967,0.090,0.014,-0.239,2803,0,395,3317,625,1389,341,4095,42,0.000,4,1,5.310,0.166,-4.520,2.560,1.100,-0.203,-0.192,0.984,-0.034,-0.162,-0.082,0.000,0.000,0.000,0.000,2,2,0,1,7,255,1440,300,473,1440
stim,1952,1952,0,63511.369,0.967,0.090,0.014,-0.239,2795,0,399,3315,648,1381,340,4095,42,0.000,4,1,4.011,0.234,-3.840,-1.100,-0.360,-0.218,-0.124,0.958,-0.234,-0.010,-0.182,0.000,0.000,0.000,0.000,2,2,0,1,7,255,1440,300,478,1440
stim,1952,1952,0,63516.369,0.967,0.090,0.014,-0.239,2789,0,371,3305,636,1371,342,4095,42,0.000,4,1,10.674,0.338,-9.760,2.200,3.720,-0.215,-0.164,0.951,-0.126,-0.314,-0.178,0.000,0.000,0.000,0.000,2,2,0,1,7,255,1440,300,483,1440
stim,1952,1952,0,63521.369,0.967,0.091,0.014,-0.239,2789,0,404,3318,649,1443,340,4095,42,0.000,4,1,11.582,0.338,-11.140,0.900,3.040,-0.179,-0.188,0.938,-0.126,-0.314,-0.182,0.000,0.000,0.000,0.000,2,2,0,1,7,255,1440,300,488,1440
stim,1952,1952,0,63526.369,0.967,0.090,0.014,-0.239,2787,0,397,3315,651,1423,348,4095,42,0.000,4,1,7.754,0.314,-7.640,0.120,1.320,-0.194,-0.141,0.992,-0.014,-0.314,-0.178,0.000,0.000,0.000,0.000,2,2,0,1,7,255,1440,300,493,1440
stim,1952,1952,0,63531.369,0.967,0.090,0.014,-0.239,2784,0,412,3320,654,1437,348,4095,42,0.000,4,1,2.970,0.028,-2.260,1.280,1.440,-0.206,-0.148,1.015,-0.014,0.024,0.126,0.000,0.000,0.000,0.000,2,2,0,1,7,255,1440,300,498,1440
stim,1952,1952,0,63536.369,0.967,0.090,0.014,-0.239,2791,0,415,3307,650,1443,349,4095,42,0.000,4,1,3.438,0.059,-1.140,1.280,2.980,-0.218,-0.158,0.956,-0.054,0.024,0.126,0.000,0.000,0.000,0.000,2,2,0,1,7,255,1440,300,503,1440
stim,1952,1952,0,63541.369,0.967,0.090,0.014,-0.239,2783,0,427,3304,653,1418,345,4095,42,0.000,4,1,6.998,0.268,-5.960,1.640,3.280,-0.203,-0.175,0.909,-0.054,-0.262,-0.132,0.000,0.000,0.000,0.000,2,2,0,1,7,255,1440,300,508,1440
stim,1985,1985,0,63546.369,0.967,0.090,0.014,-0.240,2793,0,427,3320,701,1437,346,4095,42,0.000,4,1,7.287,0.286,-7.060,0.480,1.740,-0.206,-0.171,0.967,-0.030,-0.284,-0.132,0.000,0.000,0.000,0.000,2,2,0,1,7,255,1440,300,513,1440
stim,1985,1985,0,63551.369,0.967,0.090,0.014,-0.240,2792,0,439,3310,686,1438,359,4095,42,0.000,4,1,7.146,0.284,-6.920,1.760,0.280,-0.204,-0.160,1.001,-0.008,-0.284,-0.028,0.000,0.000,0.000,0.000,2,2,0,1,7,255,1440,300,518,1440
stim,1985,1985,0,63556.369,0.967,0.091,0.015,-0.240,2803,0,439,3315,667,1413,356,4095,42,0.000,4,1,7.875,0.284,-7.640,1.380,-1.320,-0.207,-0.188,0.943,-0.002,-0.284,-0.028,0.000,0.000,0.000,0.000,2,2,0,1,7,255,1440,300,523,1440
stim,1985,1985,0,63561.369,0.967,0.091,0.015,-0.240,2788,0,443,3312,651,1403,363,4095,42,0.000,4,1,4.656,0.340,-4.500,-0.200,1.180,-0.231,-0.167,0.966,-0.002,-0.340,0.016,0.000,0.000,0.000,0.000,2,2,0,1,7,255,1440,300,528,1440
stim,2048,2048,0,63566.370,0.967,0.090,0.015,-0.240,2795,0,435,3309,682,1438,358,4095,42,0.000,4,1,5.949,0.414,-4.260,0.520,4.120,-0.224,-0.148,0.993,-0.236,-0.340,0.016,0.000,0.000,0.000,0.000,2,2,0,1,7,255,1440,300,533,1440
stim,2048,2048,0,63571.369,0.966,0.090,0.015,-0.240,2793,0,433,3319,665,1427,359,4095,42,0.000,4,1,7.851,0.292,-4.000,0.460,6.740,-0.208,-0.158,0.968,-0.236,-0.172,0.016,0.000,0.000,0.000,0.000,2,2,0,1,7,255,1440,300,538,1440
stim,2048,2048,0,63576.369,0.966,0.090,0.015,-0.240,2796,0,459,3311,717,1424,363,4095,42,0.000,4,1,7.819,0.189,-4.980,0.760,5.980,-0.177,-0.178,0.936,-0.078,-0.172,-0.040,0.000,0.000,0.000,0.000,2,2,0,1,7,255,1440,300,543,1440
stim,2048,2048,0,63581.369,0.966,0.090,0.015,-0.240,2792,0,456,3317,711,1381,363,4095,42,0.000,4,1,5.482,0.190,-4.720,0.520,2.740,-0.191,-0.163,0.972,0.080,-0.172,-0.040,0.000,0.000,0.000,0.000,2,2,0,1,7,255,1440,300,548,1440
stim,2048,2048,0,63586.369,0.966,0.090,0.015,-0.241,2805,0,467,3325,725,1404,367,4095,42,0.000,4,1,3.190,0.165,-2.940,0.700,1.020,-0.208,-0.163,0.994,0.080,-0.144,-0.022,0.000,0.000,0.000,0.000,2,2,0,1,7,255,1440,300,553,1440
stim,2048,2048,0,63591.369,0.966,0.090,0.015,-0.241,2795,0,459,3319,716,1413,371,4095,42,0.000,4,1,5.883,0.151,-5.180,1.740,2.180,-0.219,-0.157,0.949,-0.046,-0.144,-0.022,0.000,0.000,0.000,0.000,2,2,0,1,7,255,1440,300,558,1440
stim,2048,2048,0,63596.369,0.966,0.090,0.015,-0.241,2796,0,443,3324,693,1403,369,4095,42,0.000,4,1,6.493,0.260,-4.880,1.680,3.940,-0.190,-0.184,0.948,-0.046,-0.256,-0.188,0.000,0.000,0.000,0.000,2,2,0,1,7,255,1440,300,563,1440
stim,2048,2048,0,63601.369,0.966,0.090,0.015,-0.241,2805,0,457,3334,697,1416,366,4095,42,0.000,4,1,5.067,0.256,-4.740,0.880,1.560,-0.201,-0.158,0.983,-0.016,-0.256,-0.188,0.000,0.000,0.000,0.000,2,2,0,1,7,255,1440,300,568,1440
stim,2067,2067,0,63606.369,0.966,0.090,0.015,-0.241,2807,0,442,3320,672,1424,369,4095,42,0.000,4,1,3.520,0.123,-2.660,1.180,1.980,-0.213,-0.156,0.988,-0.016,-0.122,0.098,0.000,0.000,0.000,0.000,2,2,0,1,7,255,1440,300,573,1440
stim,2067,2067,0,63611.369,0.966,0.090,0.015,-0.241,2796,0,488,3322,691,1467,364,4095,42,0.000,4,1,7.633,0.123,-6.500,2.820,2.840,-0.201,-0.172,0.934,-0.016,-0.122,0.098,0.000,0.000,0.000,0.000,2,2,0,1,7,255,1440,300,578,1440
stim,2068,2068,0,63616.369,0.966,0.090,0.015,-0.241,2804,0,496,3317,712,1438,377,4095,42,0.000,4,1,4.844,0.344,-2.820,0.380,3.920,-0.205,-0.189,0.969,-0.006,-0.344,0.034,0.000,0.000,0.000,0.000,2,2,0,1,7,255,1440,300,583,1440
stim,2068,2068,0,63621.369,0.966,0.090,0.015,-0.241,2800,0,531,3319,715,1437,374,4095,42,0.000,4,1,5.345,0.344,-2.580,1.420,4.460,-0.208,-0.144,0.993,-0.006,-0.344,0.034,0.000,0.000,0.000,0.000,2,2,0,1,7,255,1440,300,588,1440
stim,2069,2069,0,63626.369,0.966,0.090,0.016,-0.242,2811,0,539,3319,725,1451,379,4095,42,0.000,4,1,6.552,0.194,-4.520,2.580,3.980,-0.198,-0.163,0.955,-0.004,-0.194,0.034,0.000,0.000,0.000,0.000,2,2,0,1,7,255,1440,300,593,1440
stim,2069,2069,0,63631.369,0.966,0.090,0.016,-0.242,2807,0,550,3337,714,1459,375,4095,42,0.000,4,1,3.471,0.194,-0.780,1.600,2.980,-0.190,-0.195,0.959,-0.004,-0.194,-0.084,0.000,0.000,0.000,0.000,2,2,0,1,7,255,1440,300,598,1440
stim,2070,2070,0,63636.369,0.966,0.089,0.016,-0.242,2813,0,542,3341,720,1493,376,4095,42,0.000,4,1,5.067,0.194,-2.980,1.720,3.720,-0.217,-0.144,0.970,-0.004,-0.194,-0.084,0.000,0.000,0.000,0.000,2,2,0,1,7,255,1440,300,603,1440
stim,2070,2070,0,63641.369,0.966,0.089,0.016,-0.242,2813,0,555,3345,685,1477,383,4095,42,0.000,4,1,8.392,0.157,-6.460,3.540,4.020,-0.190,-0.163,0.962,0.068,-0.142,-0.084,0.000,0.000,0.000,0.000,2,2,0,1,7,255,1440,300,608,1440
stim,2071,2071,0,63646.369,0.966,0.089,0.016,-0.242,2807,0,549,3338,695,1494,380,4095,42,0.000,4,1,4.362,0.157,0.580,1.640,4.000,-0.194,-0.183,0.981,0.068,-0.142,-0.016,0.000,0.000,0.000,0.000,2,2,0,1,7,255,1440,300,613,1440
stim,2071,2071,0,63651.369,0.966,0.089,0.016,-0.242,2811,0,551,3336,703,1479,377,4095,42,0.000,4,1,7.483,0.157,-4.500,3.960,4.480,-0.211,-0.112,0.952,0.068,-0.142,-0.114,0.000,0.000,0.000,0.000,2,2,0,1,7,255,1440,300,618,1440
stim,2080,2080,0,63656.369,0.966,0.089,0.016,-0.243,2824,0,541,3339,711,1477,381,4095,42,0.000,4,1,5.889,0.222,-1.120,3.580,4.540,-0.178,-0.176,0.979,0.148,-0.166,0.044,0.000,0.000,0.000,0.000,2,2,0,1,7,255,1440,300,623,1440
stim,2080,2080,0,63661.369,0.966,0.088,0.015,-0.243,2812,0,544,3343,671,1477,379,4095,42,0.000,4,1,6.928,0.260,-4.300,4.360,3.240,-0.205,-0.123,0.950,-0.244,0.090,-0.256,0.000,0.000,0.000,0.000,2,2,0,1,7,255,1440,300,628,1440
stim,2101,2101,0,63666.369,0.966,0.088,0.015,-0.243,2835,0,535,3355,669,1460,378,4095,42,0.000,4,1,5.248,0.205,-1.900,4.240,2.440,-0.192,-0.171,0.977,0.120,-0.166,0.044,0.000,0.000,0.000,0.000,2,2,0,1,7,255,1440,300,633,1440
stim,2101,2101,0,63671.369,0.966,0.088,0.015,-0.243,2825,0,537,3364,683,1481,381,4095,42,0.000,4,1,6.111,0.231,-2.280,5.200,2.260,-0.216,-0.149,0.968,-0.190,-0.132,-0.026,0.000,0.000,0.000,0.000,2,2,0,1,7,255,1440,300,638,1440
stim,2102,2102,0,63676.369,0.966,0.088,0.015,-0.243,2841,0,507,3366,653,1449,389,4095,42,0.000,4,1,6.090,0.231,-0.320,4.280,4.320,-0.223,-0.143,0.973,-0.190,-0.132,0.030,0.000,0.000,0.000,0.000,2,2,0,1,7,255,1440,300,643,1440
stim,2102,2102,0,63681.369,0.966,0.088,0.015,-0.243,2833,0,532,3359,659,1483,377,4095,42,0.000,4,1,7.756,0.248,-0.260,4.460,6.340,-0.222,-0.153,0.965,-0.210,-0.132,-0.026,0.000,0.000,0.000,0.000,2,2,0,1,7,255,1440,300,648,1440
stim,2135,2135,0,63686.369,0.966,0.087,0.015,-0.243,2837,0,535,3368,663,1480,387,4095,42,0.000,4,1,8.304,0.294,-0.500,4.440,7.000,-0.210,-0.164,0.959,-0.210,-0.206,-0.032,0.000,0.000,0.000,0.000,2,2,0,1,7,255,1440,300,653,1440
stim,2135,2135,0,63691.369,0.966,0.087,0.014,-0.244,2853,0,533,3381,656,1485,381,4095,42,0.000,4,1,7.493,0.215,-1.100,4.000,6.240,-0.207,-0.157,0.955,-0.062,-0.206,-0.088,0.000,0.000,0.000,0.000,2,2,0,1,7,255,1440,300,658,1440
stim,2136,2136,0,63696.369,0.966,0.087,0.014,-0.244,2857,0,480,3381,633,1481,379,4095,42,0.000,4,1,7.134,0.269,-2.200,4.360,5.200,-0.206,-0.178,0.960,-0.062,-0.262,-0.088,0.000,0.000,0.000,0.000,2,2,0,1,7,255,1440,300,663,1440
stim,2136,2136,0,63701.369,0.966,0.087,0.014,-0.244,2860,0,451,3400,632,1465,375,4095,42,0.000,4,1,5.499,0.339,-2.500,3.620,3.300,-0.214,-0.174,0.966,-0.028,-0.338,-0.060,0.000,0.000,0.000,0.000,2,2,0,1,7,255,1440,300,668,1440
stim,2137,2137,0,63706.369,0.966,0.087,0.014,-0.244,2871,0,499,3397,621,1488,376,4095,42,0.000,4,1,5.434,0.339,-2.080,3.800,3.280,-0.227,-0.168,0.968,-0.028,-0.338,0.000,0.000,0.000,0.000,0.000,2,2,0,1,7,255,1440,300,673,1440
stim,2137,2137,0,63711.369,0.966,0.087,0.014,-0.244,2875,0,503,3399,621,1487,382,4095,42,0.000,4,1,4.908,0.372,-2.120,2.760,3.460,-0.228,-0.169,0.967,-0.156,-0.338,0.030,0.000,0.000,0.000,0.000,2,2,0,1,7,255,1440,300,678,1440
stim,2166,2166,0,63716.369,0.966,0.087,0.014,-0.244,2891,0,519,3413,625,1491,381,4095,42,0.000,4,1,4.900,0.379,-2.120,2.320,3.760,-0.234,-0.172,0.964,-0.158,-0.344,0.030,0.000,0.000,0.000,0.000,2,2,0,1,7,255,1440,300,683,1440
stim,2166,2166,0,63721.369,0.966,0.087,0.014,-0.245,2899,0,520,3417,616,1485,382,4095,42,0.000,4,1,5.591,0.396,-2.980,1.520,4.480,-0.230,-0.164,0.965,-0.196,-0.344,0.028,0.000,0.000,0.000,0.000,2,2,0,1,7,255,1440,300,688,1440
stim,2166,2166,0,63726.369,0.966,0.087,0.013,-0.245,2893,0,529,3402,629,1506,379,4095,42,0.000,4,1,6.362,0.365,-0.520,0.720,6.300,-0.228,-0.159,0.982,-0.196,-0.308,0.028,0.000,0.000,0.000,0.000,2,2,0,1,7,255,1440,300,693,1440
stim,2166,2166,0,63731.369,0.966,0.086,0.013,-0.245,2940,0,543,3421,630,1503,391,4095,42,0.000,4,1,8.195,0.295,-0.520,0.980,8.120,-0.227,-0.140,0.973,-0.196,-0.220,0.030,0.000,0.000,0.000,0.000,2,2,0,1,7,255,1440,300,698,1440
stim,2166,2166,0,63736.369,0.966,0.086,0.013,-0.245,2905,0,539,3427,623,1507,390,4095,42,0.000,4,1,7.507,0.193,-3.340,2.060,6.400,-0.181,-0.142,0.958,-0.174,-0.084,0.030,0.000,0.000,0.000,0.000,2,2,0,1,7,255,1440,300,703,1440
stim,2166,2166,0,63741.369,0.966,0.086,0.014,-0.245,2896,0,539,3413,632,1494,389,4095,42,0.000,4,1,3.032,0.151,-1.440,0.600,2.600,-0.187,-0.161,0.958,0.126,-0.084,-0.160,0.000,0.000,0.000,0.000,2,2,0,1,7,255,1440,300,708,1440
stim,2195,2195,0,63746.369,0.966,0.085,0.013,-0.245,2915,0,551,3431,619,1499,390,4095,42,0.000,4,1,3.805,0.137,-3.260,0.780,1.800,-0.234,-0.087,0.969,0.126,0.054,-0.160,0.000,0.000,0.000,0.000,2,2,0,1,7,255,1440,300,713,1440
stim,2195,2195,0,63751.369,0.966,0.085,0.013,-0.246,2909,0,539,3427,615,1491,391,4095,42,0.000,4,1,6.385,0.352,-4.420,2.180,4.060,-0.226,-0.116,0.978,-0.334,0.110,-0.074,0.000,0.000,0.000,0.000,2,2,0,1,7,255,1440,300,718,1440
stim,2195,2195,0,63756.369,0.966,0.085,0.013,-0.246,2907,0,539,3419,619,1497,392,4095,42,0.000,4,1,4.034,0.352,-2.020,0.600,3.440,-0.197,-0.146,0.972,-0.334,0.110,-0.024,0.000,0.000,0.000,0.000,2,2,0,1,7,255,1440,300,723,1440
stim,2195,2195,0,63761.369,0.966,0.084,0.013,-0.246,2918,0,549,3425,617,1495,395,4095,42,0.000,4,1,4.096,0.340,-1.340,0.280,3.860,-0.243,-0.107,0.965,-0.334,0.066,-0.024,0.000,0.000,0.000,0.000,2,2,0,1,7,255,1440,300,728,1440
stim,2195,2195,0,63766.369,0.966,0.084,0.013,-0.246,2920,0,557,3435,620,1495,393,4095,42,0.000,4,1,6.390,0.312,-0.620,0.040,6.360,-0.237,-0.139,0.976,-0.310,-0.038,-0.024,0.000,0.000,0.000,0.000,2,2,0,1,7,255,1440,300,733,1440
stim,2195,2195,0,63771.370,0.965,0.084,0.013,-0.246,2923,0,569,3423,629,1483,397,4095,42,0.000,4,1,6.542,0.345,-1.720,1.620,6.100,-0.214,-0.154,0.957,-0.310,-0.152,-0.054,0.000,0.000,0.000,0.000,2,2,0,1,7,255,1440,300,738,1440
stim,2230,2230,0,63776.369,0.965,0.084,0.013,-0.246,2926,0,569,3437,626,1483,394,4095,42,0.000,4,1,5.984,0.245,-2.140,-1.360,5.420,-0.208,-0.166,0.955,-0.064,-0.236,-0.112,0.000,0.000,0.000,0.000,2,2,0,1,7,255,1440,300,743,1440
stim,2230,2230,0,63781.369,0.965,0.084,0.013,-0.247,2923,0,569,3433,627,1461,397,4095,42,0.000,4,1,5.387,0.239,-3.960,0.720,3.580,-0.204,-0.157,0.968,0.038,-0.236,-0.112,0.000,0.000,0.000,0.000,2,2,0,1,7,255,1440,300,748,1440
stim,2230,2230,0,63786.369,0.965,0.084,0.013,-0.247,2939,0,571,3429,647,1451,391,4095,42,0.000,4,1,4.525,0.219,-3.900,-0.580,2.220,-0.211,-0.158,0.971,0.038,-0.216,-0.022,0.000,0.000,0.000,0.000,2,2,0,1,7,255,1440,300,753,1440
stim,2230,2230,0,63791.369,0.965,0.084,0.013,-0.247,2939,0,576,3437,657,1455,395,4095,42,0.000,4,1,3.622,0.186,-3.400,-0.140,1.240,-0.216,-0.151,0.975,-0.006,-0.186,0.022,0.000,0.000,0.000,0.000,2,2,0,1,7,255,1440,300,758,1440
stim,2230,2230,0,63796.369,0.965,0.084,0.013,-0.247,2941,0,582,3431,661,1461,401,4095,42,0.000,4,1,3.635,0.230,-3.580,-0.500,0.380,-0.222,-0.163,0.964,-0.080,-0.216,0.022,0.000,0.000,0.000,0.000,2,2,0,1,7,255,1440,300,763,1440
stim,2230,2230,0,63801.369,0.965,0.084,0.013,-0.247,2936,0,589,3443,649,1453,395,4095,42,0.000,4,1,4.445,0.322,-4.360,-0.820,-0.280,-0.222,-0.166,0.961,-0.080,-0.312,-0.012,0.000,0.000,0.000,0.000,2,2,0,1,7,255,1440,300,768,1440
stim,2264,2264,0,63806.369,0.965,0.084,0.014,-0.247,2933,0,603,3435,653,1478,394,4095,42,0.000,4,1,5.431,0.344,-5.260,-1.060,-0.840,-0.218,-0.168,0.965,-0.074,-0.336,-0.012,0.000,0.000,0.000,0.000,2,2,0,1,7,255,1440,300,773,1440
stim,2264,2264,0,63811.369,0.965,0.084,0.014,-0.247,2939,0,601,3437,651,1480,403,4095,42,0.000,4,1,6.059,0.344,-5.680,-1.540,-1.440,-0.220,-0.162,0.971,-0.072,-0.336,-0.004,0.000,0.000,0.000,0.000,2,2,0,1,7,255,1440,300,778,1440
stim,2264,2264,0,63816.369,0.965,0.084,0.014,-0.247,2940,0,627,3435,664,1483,403,4095,42,0.000,4,1,5.964,0.276,-5.360,-1.840,-1.860,-0.222,-0.152,0.971,-0.072,-0.266,0.034,0.000,0.000,0.000,0.000,2,2,0,1,7,255,1440,300,783,1440
stim,2264,2264,0,63821.369,0.965,0.084,0.014,-0.247,2940,0,627,3443,684,1493,405,4095,42,0.000,4,1,6.055,0.239,-5.300,-2.260,-1.860,-0.223,-0.146,0.969,-0.136,-0.196,0.034,0.000,0.000,0.000,0.000,2,2,0,1,7,255,1440,300,788,1440
stim,2264,2264,0,63826.369,0.965,0.084,0.014,-0.247,2935,0,622,3441,685,1485,401,4095,42,0.000,4,1,6.475,0.227,-5.660,-2.620,-1.740,-0.220,-0.142,0.966,-0.172,-0.148,0.002,0.000,0.000,0.000,0.000,2,2,0,1,7,255,1440,300,793,1440
stim,2264,2264,0,63831.369,0.965,0.084,0.014,-0.247,2929,0,609,3416,665,1483,421,4095,42,0.000,4,1,7.269,0.205,-6.180,-2.980,-2.400,-0.217,-0.137,0.966,-0.174,-0.108,-0.034,0.000,0.000,0.000,0.000,2,2,0,1,7,255,1440,300,798,1440
stim,2288,2288,0,63836.369,0.965,0.084,0.014,-0.246,2916,0,597,3417,666,1476,415,4095,42,0.000,4,1,8.157,0.184,-6.660,-3.280,-3.380,-0.217,-0.138,0.968,-0.172,-0.066,-0.034,0.000,0.000,0.000,0.000,2,2,0,1,7,255,1440,300,803,1440
stim,2288,2288,0,63841.369,0.965,0.084,0.015,-0.246,2911,0,603,3429,675,1475,411,4095,42,0.000,4,1,8.460,0.177,-6.780,-3.340,-3.800,-0.218,-0.147,0.972,-0.164,-0.066,-0.032,0.000,0.000,0.000,0.000,2,2,0,1,7,255,1440,300,808,1440
stim,2288,2288,0,63846.369,0.965,0.084,0.015,-0.246,2919,0,651,3413,680,1491,410,4095,42,0.000,4,1,8.131,0.187,-6.340,-2.660,-4.340,-0.222,-0.157,0.966,-0.130,-0.134,-0.006,0.000,0.000,0.000,0.000,2,2,0,1,7,255,1440,300,813,1440
stim,2288,2288,0,63851.369,0.965,0.084,0.015,-0.246,2905,0,680,3417,714,1477,420,4095,42,0.000,4,1,7.625,0.282,-6.620,-0.160,-3.780,-0.230,-0.161,0.964,-0.130,-0.250,0.000,0.000,0.000,0.000,0.000,2,2,0,1,7,255,1440,300,818,1440
stim,2288,2288,0,63856.369,0.965,0.084,0.015,-0.246,2892,0,683,3411,723,1455,425,4095,42,0.000,4,1,7.562,0.340,-7.100,-1.800,-1.880,-0.220,-0.173,0.977,-0.130,-0.314,0.000,0.000,0.000,0.000,0.000,2,2,0,1,7,255,1440,300,823,1440
stim,2288,2288,0,63861.369,0.965,0.084,0.015,-0.246,2892,0,699,3409,739,1422,427,4095,42,0.000,4,1,7.642,0.339,-6.960,-2.660,-1.700,-0.216,-0.174,0.967,-0.030,-0.338,0.022,0.000,0.000,0.000,0.000,2,2,0,1,7,255,1440,300,828,1440
stim,2368,2368,0,63866.369,0.965,0.085,0.015,-0.246,2874,0,716,3401,763,1447,427,4095,42,0.000,4,1,7.522,0.339,-6.880,-1.360,-2.720,-0.212,-0.161,0.971,-0.030,-0.338,0.022,0.000,0.000,0.000,0.000,2,2,0,1,7,255,1440,300,833,1440
stim,2368,2368,0,63871.369,0.965,0.085,0.016,-0.246,2873,0,755,3402,775,1448,431,4095,42,0.000,4,1,7.364,0.204,-6.500,-1.540,-3.100,-0.208,-0.160,0.975,-0.004,-0.204,0.022,0.000,0.000,0.000,0.000,2,2,0,1,7,255,1440,300,838,1440
stim,2368,2368,0,63876.369,0.965,0.085,0.016,-0.246,2858,0,751,3389,781,1444,405,4095,42,0.000,4,1,6.696,0.162,-5.880,-1.480,-2.840,-0.204,-0.157,0.969,0.000,-0.162,0.022,0.000,0.000,0.000,0.000,2,2,0,1,7,255,1440,300,843,1440
stim,2368,2368,0,63881.369,0.966,0.085,0.016,-0.246,2861,0,747,3397,786,1455,404,4095,42,0.000,4,1,6.527,0.162,-5.380,-0.740,-3.620,-0.197,-0.167,0.970,0.012,-0.162,-0.004,0.000,0.000,0.000,0.000,2,2,0,1,7,255,1440,300,848,1440
stim,2368,2368,0,63886.369,0.966,0.085,0.016,-0.245,2847,0,747,3382,789,1461,416,4095,42,0.000,4,1,7.951,0.192,-5.060,-0.940,-6.060,-0.200,-0.165,0.969,0.066,-0.180,-0.016,0.000,0.000,0.000,0.000,2,2,0,1,7,255,1440,300,853,1440
stim,2368,2368,0,63891.369,0.966,0.085,0.017,-0.245,2843,0,777,3387,800,1435,424,4095,42,0.000,4,1,8.434,0.195,-4.940,-1.780,-6.600,-0.208,-0.164,0.974,0.066,-0.184,-0.004,0.000,0.000,0.000,0.000,2,2,0,1,7,255,1440,300,858,1440
stim,2371,2371,0,63896.369,0.966,0.085,0.017,-0.245,2831,0,757,3381,807,1431,427,4095,42,0.000,4,1,9.151,0.194,-4.860,-6.300,-4.520,-0.220,-0.172,0.970,-0.004,-0.194,0.046,0.000,0.000,0.000,0.000,2,2,0,1,7,255,1440,300,863,1440
stim,2371,2371,0,63901.369,0.966,0.085,0.017,-0.245,2827,0,759,3371,807,1444,423,4095,42,0.000,4,1,8.716,0.232,-5.960,-5.680,-2.860,-0.223,-0.155,0.959,-0.080,-0.218,0.046,0.000,0.000,0.000,0.000,2,2,0,1,7,255,1440,300,868,1440
stim,2385,2385,0,63906.369,0.966,0.085,0.017,-0.245,2824,0,768,3369,813,1437,438,4095,42,0.000,4,1,9.073,0.380,-7.400,-5.240,0.320,-0.236,-0.169,0.968,-0.202,-0.322,0.054,0.000,0.000,0.000,0.000,2,2,0,1,7,255,1440,300,873,1440
stim,2385,2385,0,63911.369,0.966,0.085,0.018,-0.245,2805,0,763,3360,860,1401,431,4095,42,0.000,4,1,9.127,0.297,-8.360,-1.200,-3.460,-0.195,-0.145,0.957,-0.202,-0.218,-0.074,0.000,0.000,0.000,0.000,2,2,0,1,7,255,1440,300,878,1440
stim,2385,2385,0,63916.370,0.966,0.085,0.017,-0.245,2797,0,789,3356,909,1397,427,4095,42,0.000,4,1,7.273,0.242,-6.400,3.140,-1.440,-0.206,-0.107,0.985,-0.242,-0.010,0.048,0.000,0.000,0.000,0.000,2,2,0,1,7,255,1440,300,883,1440
stim,2385,2385,0,63921.369,0.966,0.085,0.018,-0.245,2797,0,776,3363,916,1370,431,4095,42,0.000,4,1,8.812,0.028,-4.800,-7.120,1.980,-0.209,-0.161,0.993,-0.026,-0.010,0.048,0.000,0.000,0.000,0.000,2,2,0,1,7,255,1440,300,888,1440
stim,2385,2385,0,63926.369,0.966,0.085,0.018,-0.245,2795,0,841,3359,915,1381,458,4095,42,0.000,4,1,6.767,0.192,-4.860,-4.300,1.920,-0.179,-0.125,0.949,-0.026,0.190,0.048,0.000,0.000,0.000,0.000,2,2,0,1,7,255,1440,300,893,1440
stim,2385,2385,0,63931.370,0.966,0.084,0.019,-0.245,2795,0,813,3347,929,1428,441,4095,42,0.000,4,1,7.904,0.056,-6.240,-4.720,1.120,-0.185,-0.150,0.992,0.014,0.054,0.148,0.000,0.000,0.000,0.000,2,2,0,1,7,255,1440,300,898,1440
stim,2385,2385,0,63936.369,0.966,0.084,0.019,-0.245,2788,0,813,3349,936,1433,457,4095,42,0.000,4,1,9.080,0.126,-6.600,-5.020,-3.700,-0.176,-0.151,0.979,0.114,0.054,0.008,0.000,0.000,0.000,0.000,2,2,0,1,7,255,1440,300,903,1440
stim,2385,2385,0,63941.369,0.966,0.084,0.019,-0.245,2787,0,840,3339,927,1404,460,4095,42,0.000,4,1,8.181,0.122,-4.440,-3.420,-5.960,-0.219,-0.170,1.009,0.114,0.044,0.148,0.000,0.000,0.000,0.000,2,2,0,1,7,255,1440,300,908,1440
stim,2385,2385,0,63946.369,0.966,0.084,0.020,-0.245,2789,0,827,3337,943,1384,457,4095,42,0.000,4,1,9.846,0.233,-3.640,-5.540,-7.280,-0.219,-0.161,0.973,-0.082,-0.218,0.050,0.000,0.000,0.000,0.000,2,2,0,1,7,255,1440,300,913,1440
stim,2385,2385,0,63951.369,0.966,0.084,0.020,-0.244,2789,0,880,3328,933,1368,461,4095,42,0.000,4,1,7.485,0.273,-4.000,-2.660,-5.740,-0.217,-0.157,0.963,-0.164,-0.218,0.050,0.000,0.000,0.000,0.000,2,2,0,1,7,255,1440,300,918,1440
stim,2385,2385,0,63956.369,0.966,0.084,0.020,-0.244,2787,0,865,3345,939,1395,465,4095,42,0.000,4,1,5.538,0.294,-3.020,-4.180,2.020,-0.250,-0.158,0.977,-0.178,-0.234,0.050,0.000,0.000,0.000,0.000,2,2,0,1,7,255,1440,300,923,1440
stim,2385,2385,0,63961.369,0.966,0.084,0.020,-0.245,2788,0,879,3348,937,1372,465,4095,42,0.000,4,1,8.801,0.285,-5.340,-6.200,3.240,-0.197,-0.169,0.968,-0.178,-0.222,-0.026,0.000,0.000,0.000,0.000,2,2,0,1,7,255,1440,300,928,1440
stim,2400,2400,0,63966.369,0.966,0.084,0.021,-0.245,2777,0,887,3334,951,1361,470,4093,42,0.000,4,1,6.602,0.228,-3.320,-5.500,1.520,-0.175,-0.151,0.982,0.052,-0.222,0.034,0.000,0.000,0.000,0.000,2,2,0,1,7,255,1440,300,933,1440
stim,2400,2400,0,63971.369,0.966,0.084,0.021,-0.245,2791,0,895,3335,941,1332,475,4095,42,0.000,4,1,5.396,0.228,-3.300,-4.160,0.960,-0.204,-0.170,0.968,0.052,-0.222,-0.012,0.000,0.000,0.000,0.000,2,2,0,1,7,255,1440,300,938,1440
stim,2400,2400,0,63976.369,0.966,0.084,0.021,-0.245,2781,0,904,3335,935,1340,474,4095,42,0.000,4,1,7.264,0.201,-5.120,-4.460,-2.580,-0.164,-0.172,0.965,0.160,-0.122,-0.012,0.000,0.000,0.000,0.000,2,2,0,1,7,255,1440,300,943,1440
stim,2400,2400,0,63981.369,0.966,0.084,0.022,-0.245,2771,0,871,3325,931,1294,478,4095,42,0.000,4,1,6.431,0.145,-4.560,-2.060,-4.040,-0.176,-0.145,0.958,0.078,-0.122,-0.116,0.000,0.000,0.000,0.000,2,2,0,1,7,255,1440,300,948,1440
stim,2464,2464,0,63986.369,0.966,0.084,0.022,-0.245,2781,0,862,3336,941,1341,485,4095,42,0.000,4,1,5.319,0.145,-3.040,-4.320,0.620,-0.217,-0.151,0.964,0.078,-0.122,-0.116,0.000,0.000,0.000,0.000,2,2,0,1,7,255,1440,300,953,1440
stim,2464,2464,0,63991.369,0.966,0.084,0.022,-0.245,2773,0,874,3322,936,1321,487,4095,42,0.000,4,1,6.100,0.078,-5.220,-3.020,-0.920,-0.170,-0.154,0.964,0.078,0.000,-0.136,0.000,0.000,0.000,0.000,2,2,0,1,7,255,1440,300,958,1440
stim,2464,2464,0,63996.369,0.966,0.084,0.022,-0.245,2779,0,861,3323,940,1315,478,4095,42,0.000,4,1,4.954,0.068,-3.140,-3.820,-0.300,-0.190,-0.146,0.955,-0.050,-0.046,-0.136,0.000,0.000,0.000,0.000,2,2,0,1,7,255,1440,300,963,1440
stim,2464,2464,0,64001.369,0.966,0.084,0.023,-0.245,2769,0,857,3323,947,1329,483,4095,42,0.000,4,1,4.930,0.068,-4.660,-1.600,-0.180,-0.202,-0.163,0.972,-0.050,-0.046,-0.136,0.000,0.000,0.000,0.000,2,2,0,1,7,255,1440,300,968,1440
stim,2464,2464,0,64006.369,0.966,0.084,0.023,-0.245,2775,0,928,3323,951,1357,483,4095,42,0.000,4,1,7.382,0.096,-6.420,-2.760,-2.380,-0.172,-0.161,0.960,-0.050,-0.082,-0.152,0.000,0.000,0.000,0.000,2,2,0,1,7,255,1440,300,973,1440
stim,2464,2464,0,64011.369,0.966,0.084,0.023,-0.245,2764,0,921,3333,933,1280,486,4095,42,0.000,4,1,6.209,0.094,-5.440,-1.060,-2.800,-0.179,-0.148,0.964,0.046,-0.082,-0.126,0.000,0.000,0.000,0.000,2,2,0,1,7,255,1440,300,978,1440
stim,2464,2464,0,64016.369,0.966,0.083,0.023,-0.245,2767,0,861,3323,931,1290,484,4095,42,0.000,4,1,4.167,0.094,-3.520,-1.720,1.420,-0.213,-0.146,0.962,0.046,-0.082,-0.126,0.000,0.000,0.000,0.000,2,2,0,1,7,255,1440,300,983,1440
stim,2464,2464,0,64021.369,0.966,0.083,0.023,-0.245,2773,0,876,3312,925,1256,487,4095,42,0.000,4,1,5.461,0.046,-5.220,-0.620,1.480,-0.166,-0.153,0.968,0.046,0.000,-0.102,0.000,0.000,0.000,0.000,2,2,0,1,7,255,1440,300,988,1440
stim,2464,2464,0,64026.369,0.966,0.083,0.024,-0.245,2764,0,922,3325,935,1271,487,4095,42,0.000,4,1,3.984,0.186,-3.940,-0.500,0.320,-0.159,-0.153,0.961,0.184,0.028,-0.102,0.000,0.000,0.000,0.000,2,2,0,1,7,255,1440,300,993,1440
stim,2464,2464,0,64031.369,0.966,0.083,0.024,-0.245,2761,0,925,3313,925,1239,485,4095,42,0.000,4,1,3.256,0.186,-3.080,-0.180,1.040,-0.190,-0.148,0.953,0.184,0.028,-0.178,0.000,0.000,0.000,0.000,2,2,0,1,7,255,1440,300,998,1440
stim,2464,2464,0,64036.369,0.966,0.083,0.024,-0.245,2760,0,880,3321,927,1237,485,4095,42,0.000,4,1,5.416,0.118,-5.260,0.840,0.980,-0.174,-0.155,0.961,0.106,-0.052,-0.178,0.000,0.000,0.000,0.000,2,2,0,1,7,255,1440,300,1003,1440
stim,2464,2464,0,64041.369,0.966,0.083,0.024,-0.245,2763,0,879,3319,927,1254,486,4095,42,0.000,4,1,4.871,0.118,-4.700,1.280,0.000,-0.162,-0.161,0.962,0.106,-0.052,-0.144,0.000,0.000,0.000,0.000,2,2,0,1,7,255,1440,300,1008,1440
stim,2464,2464,0,64046.370,0.966,0.083,0.024,-0.245,2764,0,885,3309,924,1191,485,4095,42,0.000,4,1,5.236,0.185,-4.640,2.060,-1.280,-0.167,-0.162,0.957,0.178,-0.052,-0.144,0.000,0.000,0.000,0.000,2,2,0,1,7,255,1440,300,1013,1440
stim,2464,2464,0,64051.369,0.966,0.083,0.024,-0.245,2777,0,878,3313,915,1214,481,4095,42,0.000,4,1,5.633,0.199,-4.800,2.560,-1.460,-0.178,-0.160,0.955,0.178,-0.088,-0.180,0.000,0.000,0.000,0.000,2,2,0,1,7,255,1440,300,1018,1440
stim,2497,2497,0,64056.369,0.966,0.083,0.024,-0.245,2762,0,867,3307,908,1180,477,4095,42,0.000,4,1,5.706,0.144,-4.860,2.980,-0.240,-0.185,-0.165,0.958,0.070,-0.126,-0.180,0.000,0.000,0.000,0.000,2,2,0,1,7,255,1440,300,1023,1440
stim,2497,2497,0,64061.369,0.966,0.083,0.024,-0.245,2785,0,871,3311,909,1209,460,4095,42,0.000,4,1,5.775,0.186,-4.780,3.140,0.800,-0.187,-0.169,0.959,0.038,-0.182,-0.128,0.000,0.000,0.000,0.000,2,2,0,1,7,255,1440,300,1028,1440
stim,2497,2497,0,64066.369,0.966,0.083,0.024,-0.245,2776,0,856,3315,911,1199,461,4095,42,0.000,4,1,6.136,0.223,-4.960,3.440,1.100,-0.187,-0.173,0.957,0.038,-0.220,-0.120,0.000,0.000,0.000,0.000,2,2,0,1,7,255,1440,300,1033,1440
stim,2497,2497,0,64071.369,0.966,0.084,0.024,-0.245,2777,0,840,3306,915,1210,459,4095,42,0.000,4,1,6.587,0.259,-5.500,3.560,0.680,-0.188,-0.177,0.960,0.052,-0.254,-0.100,0.000,0.000,0.000,0.000,2,2,0,1,7,255,1440,300,1038,1440
stim,2560,2560,0,64076.370,0.966,0.084,0.024,-0.245,2774,0,845,3319,909,1206,429,4095,42,0.000,4,1,6.615,0.271,-5.560,3.560,-0.420,-0.194,-0.176,0.970,0.052,-0.266,-0.074,0.000,0.000,0.000,0.000,2,2,0,1,7,255,1440,300,1043,1440
stim,2560,2560,0,64081.369,0.966,0.084,0.024,-0.245,2774,0,824,3319,907,1241,425,4095,42,0.000,4,1,6.453,0.267,-5.360,3.420,-1.100,-0.205,-0.168,0.973,0.020,-0.266,0.024,0.000,0.000,0.000,0.000,2,2,0,1,7,255,1440,300,1048,1440
stim,2560,2560,0,64086.369,0.966,0.084,0.024,-0.245,2773,0,813,3303,864,1259,439,4095,42,0.000,4,1,6.146,0.258,-5.220,3.240,-0.180,-0.210,-0.162,0.974,-0.108,-0.234,0.060,0.000,0.000,0.000,0.000,2,2,0,1,7,255,1440,300,1053,1440
stim,2560,2560,0,64091.369,0.966,0.084,0.024,-0.245,2779,0,825,3315,788,1204,439,4095,42,0.000,4,1,6.041,0.240,-5.040,3.040,1.360,-0.206,-0.160,0.972,-0.142,-0.194,0.060,0.000,0.000,0.000,0.000,2,2,0,1,7,255,1440,300,1058,1440
stim,2561,2561,0,64096.369,0.966,0.084,0.024,-0.245,2775,0,819,3307,793,1243,453,4095,42,0.000,4,1,6.226,0.214,-5.020,3.040,2.080,-0.193,-0.157,0.970,-0.142,-0.160,0.040,0.000,0.000,0.000,0.000,2,2,0,1,7,255,1440,300,1063,1440
stim,2561,2561,0,64101.369,0.966,0.084,0.024,-0.245,2771,0,801,3315,793,1263,456,4095,42,0.000,4,1,6.264,0.100,-5.260,3.100,1.400,-0.187,-0.155,0.967,-0.054,-0.084,-0.014,0.000,0.000,0.000,0.000,2,2,0,1,7,255,1440,300,1068,1440
stim,2561,2561,0,64106.369,0.966,0.084,0.024,-0.245,2765,0,785,3310,792,1211,463,4095,42,0.000,4,1,6.740,0.082,-5.980,3.100,-0.240,-0.192,-0.154,0.967,-0.054,-0.062,-0.042,0.000,0.000,0.000,0.000,2,2,0,1,7,255,1440,300,1073,1440
stim,2561,2561,0,64111.369,0.966,0.084,0.024,-0.245,2765,0,789,3307,781,1224,456,4095,42,0.000,4,1,7.613,0.075,-6.820,2.960,-1.640,-0.205,-0.147,0.972,-0.054,-0.052,-0.042,0.000,0.000,0.000,0.000,2,2,0,1,7,255,1440,300,1078,1440
stim,2561,2561,0,64116.371,0.966,0.084,0.024,-0.245,2777,0,789,3307,780,1231,459,4095,42,0.000,4,1,8.130,0.193,-7.540,2.520,-1.700,-0.218,-0.143,0.979,-0.188,-0.044,0.010,0.000,0.000,0.000,0.000,2,2,0,1,7,255,1440,300,1083,1440
stim,2561,2561,0,64121.369,0.966,0.084,0.024,-0.245,2775,0,744,3319,784,1190,461,4095,42,0.000,4,1,7.672,0.315,-7.340,2.220,-0.240,-0.221,-0.144,0.986,-0.312,-0.044,0.104,0.000,0.000,0.000,0.000,2,2,0,1,7,255,1440,300,1088,1440
