condition_phase,condition_phase_elapsed_ms,condition_elapsed_ms,is_stimulation_on,t_ms,L_q0,L_q1,L_q2,L_q3,L_heel1,L_mid1,L_fore1,L_heel2,L_fore3,L_mid2,L_fore4,L_fore2,L_cadence,L_speed,L_steps,L_zupt,L_gyroNorm,L_accH,L_gyro_x,L_gyro_y,L_gyro_z,L_acc_x,L_acc_y,L_acc_z,L_nav_ax,L_nav_ay,L_nav_az,L_stepVel,L_stepVelj,L_stepDispRaw,L_stepDispZUPT,L_gaitEvent,L_motorMode,L_motorActive,L_motorAlignment,L_motorRegionMask,L_motorAmplitude,L_motorIntervalMs,L_motorDurationMs,L_motorPhaseMs,L_motorCycleMs
stim,16,16,0,609193.829,0.910,0.065,-0.043,-0.408,1951,0,80,2017,103,988,81,477,1,0.000,3,0,0.655,0.006,-0.500,0.140,-0.400,-0.135,-0.081,0.991,-0.006,-0.002,0.004,0.000,0.000,0.000,0.000,1,2,0,3,7,255,816,200,8,816
stim,16,16,0,609198.829,0.910,0.065,-0.043,-0.408,1966,1,85,2031,100,985,77,481,1,0.000,3,0,0.685,0.013,-0.560,0.200,-0.340,-0.135,-0.081,0.989,0.012,-0.004,0.004,0.000,0.000,0.000,0.000,1,2,0,3,7,255,816,200,13,816
stim,43,43,0,609203.829,0.910,0.065,-0.043,-0.408,1961,0,77,2018,101,995,81,483,1,0.000,3,0,0.573,0.013,-0.440,0.140,-0.340,-0.136,-0.082,0.989,0.012,-0.006,-0.012,0.000,0.000,0.000,0.000,1,2,0,3,7,255,816,200,18,816
stim,43,43,0,609208.829,0.910,0.065,-0.043,-0.408,1957,0,83,2009,103,989,81,485,1,0.000,3,0,0.629,0.017,-0.380,0.200,-0.460,-0.136,-0.082,0.990,0.012,-0.012,-0.012,0.000,0.000,0.000,0.000,1,2,0,3,7,255,816,200,23,816
stim,43,43,0,609213.829,0.910,0.065,-0.043,-0.408,1956,0,76,2021,100,987,76,479,1,0.000,3,0,0.819,0.014,-0.440,0.260,-0.640,-0.136,-0.079,0.991,0.008,-0.012,0.002,0.000,0.000,0.000,0.000,1,2,0,3,7,255,816,200,28,816
stim,43,43,0,609218.829,0.910,0.065,-0.043,-0.408,1950,0,83,2009,107,987,84,475,1,0.000,3,0,0.836,0.010,-0.500,0.200,-0.640,-0.135,-0.081,0.992,0.008,0.006,0.008,0.000,0.000,0.000,0.000,1,2,0,3,7,255,816,200,33,816
stim,66,66,0,609223.829,0.910,0.066,-0.043,-0.408,1951,0,81,2017,99,991,75,481,1,0.000,3,0,0.790,0.007,-0.560,0.200,-0.520,-0.136,-0.080,0.991,-0.004,0.006,0.008,0.000,0.000,0.000,0.000,1,2,0,3,7,255,816,200,38,816
stim,66,66,0,609228.830,0.910,0.066,-0.043,-0.408,1950,0,83,2008,103,989,82,479,1,0.000,3,0,0.797,0.011,-0.620,0.200,-0.460,-0.135,-0.082,0.990,0.010,0.004,0.008,0.000,0.000,0.000,0.000,1,2,0,3,7,255,816,200,43,816
stim,67,67,0,609233.829,0.910,0.066,-0.043,-0.408,1959,0,77,2017,105,993,75,480,1,0.000,3,0,0.815,0.011,-0.620,0.260,-0.460,-0.137,-0.081,0.990,-0.004,-0.010,0.000,0.000,0.000,0.000,0.000,1,2,0,3,7,255,816,200,48,816
stim,67,67,0,609238.829,0.910,0.066,-0.043,-0.408,1950,0,81,2010,109,988,75,476,1,0.000,3,0,0.874,0.011,-0.560,0.200,-0.640,-0.137,-0.080,0.990,-0.004,-0.010,-0.002,0.000,0.000,0.000,0.000,1,2,0,3,7,255,816,200,53,816
stim,67,67,0,609243.829,0.910,0.066,-0.043,-0.408,1949,0,83,2013,109,985,77,482,1,0.000,3,0,0.933,0.009,-0.560,0.260,-0.700,-0.136,-0.080,0.990,-0.004,-0.008,-0.002,0.000,0.000,0.000,0.000,1,2,0,3,7,255,816,200,58,816
stim,67,67,0,609248.829,0.910,0.066,-0.043,-0.407,1957,0,85,2011,115,987,81,477,1,0.000,3,0,0.931,0.004,-0.680,0.260,-0.580,-0.135,-0.081,0.991,-0.004,-0.002,0.000,0.000,0.000,0.000,0.000,1,2,0,3,7,255,816,200,63,816
stim,79,79,0,609253.829,0.910,0.066,-0.043,-0.407,1949,0,83,2020,108,984,77,479,1,0.000,3,0,0.944,0.008,-0.800,0.200,-0.460,-0.135,-0.083,0.990,0.008,-0.002,0.000,0.000,0.000,0.000,0.000,1,2,0,3,7,255,816,200,68,816
stim,79,79,0,609258.829,0.910,0.066,-0.043,-0.407,1957,0,77,2021,111,979,72,475,1,0.000,3,0,0.894,0.010,-0.740,0.200,-0.460,-0.138,-0.080,0.990,0.008,-0.006,0.000,0.000,0.000,0.000,0.000,1,2,0,3,7,255,816,200,73,816
stim,79,79,0,609263.829,0.910,0.066,-0.043,-0.407,1948,0,77,2013,118,993,77,483,1,0.000,3,0,0.732,0.007,-0.440,0.080,-0.580,-0.135,-0.079,0.991,-0.004,-0.006,0.000,0.000,0.000,0.000,0.000,1,2,0,3,7,255,816,200,78,816
stim,79,79,0,609268.829,0.910,0.066,-0.043,-0.407,1949,0,83,2012,111,987,71,483,1,0.000,3,0,0.602,0.007,-0.560,0.020,-0.220,-0.135,-0.083,0.992,-0.004,-0.006,0.002,0.000,0.000,0.000,0.000,1,2,0,3,7,255,816,200,83,816
stim,95,95,0,609273.829,0.910,0.066,-0.043,-0.407,1947,0,77,2012,112,985,73,475,1,0.000,3,0,0.834,0.010,-0.800,0.080,0.220,-0.138,-0.083,0.991,0.008,-0.006,0.014,0.000,0.000,0.000,0.000,1,2,0,3,7,255,816,200,88,816
stim,95,95,0,609278.829,0.910,0.066,-0.043,-0.407,1950,0,83,2021,116,985,79,481,1,0.000,3,0,0.935,0.027,-0.860,0.140,-0.340,-0.141,-0.079,0.989,0.008,-0.026,0.014,0.000,0.000,0.000,0.000,1,2,0,3,7,255,816,200,93,816
stim,111,111,0,609283.829,0.910,0.066,-0.043,-0.407,1953,0,81,2012,115,985,75,481,1,0.000,3,0,1.095,0.048,-0.440,0.080,-1.000,-0.139,-0.078,0.990,-0.040,-0.026,-0.004,0.000,0.000,0.000,0.000,1,2,0,3,7,255,816,200,98,816
stim,111,111,0,609288.829,0.910,0.066,-0.043,-0.407,1943,0,77,2009,120,987,73,476,1,0.000,3,0,0.884,0.040,-0.320,0.080,-0.820,-0.131,-0.083,0.993,-0.040,-0.002,-0.004,0.000,0.000,0.000,0.000,1,2,0,3,7,255,816,200,103,816
stim,111,111,0,609293.829,0.910,0.066,-0.043,-0.407,1955,0,77,2019,121,985,74,479,1,0.000,3,0,0.816,0.048,-0.800,0.020,0.160,-0.130,-0.084,0.993,0.044,0.020,0.020,0.000,0.000,0.000,0.000,1,2,0,3,7,255,816,200,108,816
stim,111,111,0,609298.829,0.910,0.066,-0.043,-0.407,1943,0,75,2009,119,981,73,475,1,0.000,3,0,1.244,0.048,-1.100,0.020,0.580,-0.140,-0.081,0.990,0.044,0.020,0.020,0.000,0.000,0.000,0.000,1,2,0,3,7,255,816,200,113,816
stim,131,131,0,609303.829,0.910,0.066,-0.043,-0.407,1948,0,81,2011,117,982,70,477,1,0.000,3,0,1.047,0.043,-0.860,0.140,-0.580,-0.145,-0.077,0.987,-0.028,-0.032,0.000,0.000,0.000,0.000,0.000,1,2,0,3,7,255,816,200,118,816
stim,131,131,0,609308.829,0.910,0.066,-0.043,-0.407,1933,0,76,2003,122,983,71,474,1,0.000,3,0,1.996,0.050,-0.440,0.320,-1.920,-0.138,-0.078,0.990,-0.038,-0.032,-0.004,0.000,0.000,0.000,0.000,1,2,0,3,7,255,816,200,123,816
stim,161,161,0,609313.829,0.910,0.066,-0.043,-0.407,1943,0,77,2013,119,979,71,475,1,0.000,3,0,1.618,0.038,-0.380,0.200,-1.560,-0.128,-0.085,0.993,-0.038,0.006,-0.004,0.000,0.000,0.000,0.000,1,2,0,3,7,255,816,200,128,816
stim,161,161,0,609318.829,0.910,0.066,-0.043,-0.407,1949,0,75,2013,126,984,72,472,1,0.000,3,0,0.801,0.089,-0.800,0.020,0.040,-0.127,-0.088,0.991,0.086,0.022,0.000,0.000,0.000,0.000,0.000,1,2,0,3,7,255,816,200,133,816
stim,161,161,0,609323.829,0.910,0.066,-0.043,-0.407,1938,0,74,2006,122,984,70,474,1,0.000,3,0,1.507,0.089,-0.980,-0.100,1.140,-0.138,-0.085,0.988,0.086,0.022,0.000,0.000,0.000,0.000,0.000,1,2,0,3,7,255,816,200,138,816
stim,161,161,0,609328.830,0.910,0.066,-0.043,-0.407,1945,0,81,2017,123,983,75,477,1,0.000,3,0,0.895,0.046,-0.800,0.020,0.400,-0.149,-0.081,0.987,0.018,-0.042,-0.012,0.000,0.000,0.000,0.000,1,2,0,3,7,255,816,200,143,816
stim,161,161,0,609333.829,0.910,0.066,-0.043,-0.407,1936,0,75,2009,120,979,72,473,1,0.000,3,0,1.706,0.092,-0.260,0.140,-1.680,-0.144,-0.077,0.987,-0.082,-0.042,-0.012,0.000,0.000,0.000,0.000,1,2,0,3,7,255,816,200,148,816
stim,161,161,0,609338.829,0.910,0.066,-0.043,-0.407,1935,0,76,2005,116,979,73,471,1,0.000,3,0,2.168,0.089,0.120,0.140,-2.160,-0.128,-0.079,0.993,-0.082,-0.034,-0.012,0.000,0.000,0.000,0.000,1,2,0,3,7,255,816,200,153,816
stim,196,196,0,609343.829,0.910,0.066,-0.043,-0.407,1931,0,81,2008,117,983,73,475,1,0.000,3,0,0.684,0.070,-0.500,0.080,-0.460,-0.124,-0.086,0.996,0.032,0.062,0.012,0.000,0.000,0.000,0.000,1,2,0,3,7,255,816,200,158,816
stim,196,196,0,609348.829,0.910,0.066,-0.043,-0.407,1931,0,81,2017,112,977,73,477,1,0.000,3,0,1.518,0.070,-1.340,0.140,0.700,-0.137,-0.085,0.991,0.032,0.062,0.014,0.000,0.000,0.000,0.000,1,2,0,3,7,255,816,200,163,816
stim,196,196,0,609353.829,0.910,0.066,-0.043,-0.407,1932,0,81,2007,111,976,71,471,1,0.000,3,0,1.209,0.033,-1.160,0.260,-0.220,-0.146,-0.077,0.985,0.020,-0.026,0.014,0.000,0.000,0.000,0.000,1,2,0,3,7,255,816,200,168,816
stim,196,196,0,609358.829,0.910,0.066,-0.043,-0.407,1933,0,83,2013,114,987,73,475,1,0.000,3,0,1.821,0.050,-0.380,0.380,-1.740,-0.141,-0.081,0.986,-0.038,-0.032,-0.036,0.000,0.000,0.000,0.000,1,2,0,3,7,255,816,200,173,816
stim,196,196,0,609363.829,0.910,0.066,-0.043,-0.407,1933,0,82,2009,107,971,71,475,1,0.000,3,0,1.907,0.050,-0.180,0.380,-1.860,-0.129,-0.087,0.990,-0.038,-0.032,-0.036,0.000,0.000,0.000,0.000,1,2,0,3,7,255,816,200,178,816
stim,196,196,0,609368.829,0.910,0.066,-0.043,-0.407,1931,0,75,2003,106,977,70,473,1,0.000,3,0,0.708,0.077,-0.500,0.200,-0.460,-0.127,-0.084,0.992,0.076,0.012,-0.002,0.000,0.000,0.000,0.000,1,2,0,3,7,255,816,200,183,816
stim,196,196,0,609373.829,0.910,0.066,-0.043,-0.407,1933,0,73,2011,106,977,71,471,1,0.000,3,0,1.148,0.077,-0.860,-0.040,0.760,-0.135,-0.083,0.992,0.076,0.012,0.010,0.000,0.000,0.000,0.000,1,2,0,3,7,255,816,200,188,816
stim,196,196,0,609378.829,0.910,0.066,-0.043,-0.407,1927,0,78,2018,101,969,71,473,1,0.000,3,0,1.193,0.016,-1.040,0.080,0.580,-0.144,-0.084,0.988,0.014,0.008,0.010,0.000,0.000,0.000,0.000,1,2,0,3,7,255,816,200,193,816
stim,208,208,0,609383.829,0.910,0.066,-0.043,-0.407,1931,0,76,2009,99,969,69,471,1,0.000,3,0,1.205,0.071,-0.620,0.260,-1.000,-0.146,-0.081,0.986,-0.034,-0.062,-0.006,0.000,0.000,0.000,0.000,1,2,0,3,7,255,816,200,198,816
stim,208,208,0,609388.829,0.910,0.066,-0.043,-0.407,1920,0,75,2005,103,971,72,475,1,0.000,3,0,2.065,0.071,0.000,0.320,-2.040,-0.135,-0.078,0.989,-0.034,-0.062,-0.014,0.000,0.000,0.000,0.000,1,2,0,3,7,255,816,200,203,816
stim,229,229,0,609393.829,0.910,0.066,-0.043,-0.407,1939,0,83,2017,96,955,72,471,1,0.000,3,0,1.358,0.038,0.000,0.320,-1.320,-0.126,-0.083,0.995,-0.018,0.034,-0.014,0.000,0.000,0.000,0.000,1,2,0,3,7,255,816,200,208,816
stim,229,229,0,609398.829,0.910,0.066,-0.043,-0.407,1933,0,83,2007,103,944,72,469,1,0.000,3,0,0.926,0.081,-0.860,0.200,0.280,-0.129,-0.087,0.993,0.074,0.034,0.024,0.000,0.000,0.000,0.000,1,2,0,3,7,255,816,200,213,816
stim,229,229,0,609403.829,0.910,0.066,-0.043,-0.407,1920,0,86,2009,105,953,73,474,1,0.000,3,0,1.438,0.078,-1.280,0.140,0.640,-0.140,-0.084,0.987,0.074,0.026,0.024,0.000,0.000,0.000,0.000,1,2,0,3,7,255,816,200,218,816
stim,229,229,0,609408.829,0.910,0.067,-0.043,-0.407,1927,0,77,2010,104,950,74,473,1,0.000,3,0,0.797,0.042,-0.620,0.200,-0.460,-0.145,-0.081,0.983,-0.012,-0.040,-0.022,0.000,0.000,0.000,0.000,1,2,0,3,7,255,816,200,223,816
stim,239,239,0,609413.829,0.910,0.067,-0.043,-0.407,1930,0,83,2028,103,949,73,473,1,0.000,3,0,1.483,0.045,0.240,0.260,-1.440,-0.139,-0.082,0.988,-0.020,-0.040,-0.022,0.000,0.000,0.000,0.000,1,2,0,3,7,255,816,200,228,816
stim,239,239,0,609418.829,0.910,0.067,-0.043,-0.407,1929,0,83,2009,103,953,75,474,1,0.000,3,0,1.151,0.024,0.060,0.260,-1.120,-0.131,-0.085,0.993,-0.020,-0.014,-0.018,0.000,0.000,0.000,0.000,1,2,0,3,7,255,816,200,233,816
stim,271,271,0,609423.829,0.910,0.067,-0.043,-0.407,1934,0,81,2020,101,949,73,475,1,0.000,3,0,0.638,0.040,-0.560,0.260,-0.160,-0.132,-0.082,0.994,0.028,0.028,0.026,0.000,0.000,0.000,0.000,1,2,0,3,7,255,816,200,238,816
stim,271,271,0,609428.829,0.910,0.067,-0.043,-0.407,1923,0,75,2007,100,952,72,469,1,0.000,3,0,0.935,0.040,-0.860,0.140,0.340,-0.137,-0.081,0.990,0.028,0.028,0.026,0.000,0.000,0.000,0.000,1,2,0,3,7,255,816,200,243,816
stim,271,271,0,609433.829,0.910,0.067,-0.043,-0.407,1915,0,80,2005,103,950,76,471,1,0.000,3,0,0.578,0.015,-0.560,0.140,-0.020,-0.141,-0.081,0.988,-0.014,0.006,-0.004,0.000,0.000,0.000,0.000,1,2,0,3,7,255,816,200,248,816
stim,271,271,0,609438.829,0.910,0.067,-0.043,-0.407,1915,0,83,2008,103,948,77,473,1,0.000,3,0,0.578,0.028,-0.320,0.140,-0.460,-0.139,-0.085,0.988,-0.014,-0.024,-0.016,0.000,0.000,0.000,0.000,1,2,0,3,7,255,816,200,253,816
stim,271,271,0,609443.829,0.910,0.067,-0.043,-0.407,1925,0,77,2007,93,947,75,473,1,0.000,3,0,0.795,0.024,-0.320,0.200,-0.700,-0.136,-0.084,0.990,0.002,-0.024,-0.016,0.000,0.000,0.000,0.000,1,2,0,3,7,255,816,200,258,816
stim,271,271,0,609448.829,0.910,0.067,-0.043,-0.407,1931,0,79,2011,101,944,76,471,1,0.000,3,0,0.578,0.021,-0.320,0.140,-0.460,-0.135,-0.084,0.989,0.020,-0.006,-0.008,0.000,0.000,0.000,0.000,1,2,0,3,7,255,816,200,263,816
stim,271,271,0,609453.829,0.910,0.067,-0.043,-0.407,1926,0,83,2004,101,951,73,471,1,0.000,3,0,0.433,0.020,-0.320,0.080,-0.280,-0.136,-0.083,0.990,0.020,0.000,-0.002,0.000,0.000,0.000,0.000,1,2,0,3,7,255,816,200,268,816
stim,287,287,0,609458.829,0.910,0.067,-0.043,-0.407,1909,0,75,1999,100,943,74,466,1,0.000,3,0,0.413,0.002,-0.320,0.140,-0.220,-0.138,-0.083,0.990,0.002,0.000,0.002,0.000,0.000,0.000,0.000,1,2,0,3,7,255,816,200,273,816
stim,287,287,0,609463.829,0.910,0.067,-0.043,-0.407,1919,0,83,2007,99,952,77,473,1,0.000,3,0,0.467,0.010,-0.320,0.020,-0.340,-0.137,-0.084,0.990,0.002,-0.010,0.004,0.000,0.000,0.000,0.000,1,2,0,3,7,255,816,200,278,816
stim,287,287,0,609468.829,0.910,0.067,-0.043,-0.407,1925,0,77,2011,96,951,72,471,1,0.000,3,0,0.474,0.010,-0.320,0.080,-0.340,-0.137,-0.083,0.989,0.002,-0.010,0.004,0.000,0.000,0.000,0.000,1,2,0,3,7,255,816,200,283,816
stim,303,303,0,609473.829,0.910,0.067,-0.043,-0.407,1913,0,80,2004,102,949,76,472,1,0.000,3,0,0.439,0.010,-0.180,0.020,-0.400,-0.137,-0.083,0.989,0.002,-0.010,-0.006,0.000,0.000,0.000,0.000,1,2,0,3,7,255,816,200,288,816
stim,303,303,0,609478.829,0.910,0.067,-0.043,-0.407,1932,0,81,2015,100,951,72,473,1,0.000,3,0,0.439,0.004,-0.180,0.020,-0.400,-0.136,-0.082,0.989,0.002,-0.004,-0.010,0.000,0.000,0.000,0.000,1,2,0,3,7,255,816,200,293,816
stim,319,319,0,609483.829,0.910,0.067,-0.043,-0.407,1917,0,79,2007,96,944,72,468,1,0.000,3,0,0.369,0.003,-0.240,0.020,-0.280,-0.136,-0.084,0.990,0.002,-0.002,-0.010,0.000,0.000,0.000,0.000,1,2,0,3,7,255,816,200,298,816
stim,319,319,0,609488.829,0.910,0.067,-0.043,-0.407,1917,0,85,2017,94,948,76,474,1,0.000,3,0,0.413,0.016,-0.380,0.020,-0.160,-0.135,-0.083,0.991,0.012,0.010,0.002,0.000,0.000,0.000,0.000,1,2,0,3,7,255,816,200,303,816
stim,319,319,0,609493.829,0.910,0.067,-0.043,-0.407,1919,0,84,2004,100,949,71,471,1,0.000,3,0,0.390,0.012,-0.380,-0.040,-0.080,-0.137,-0.084,0.989,0.012,-0.002,0.002,0.000,0.000,0.000,0.000,1,2,0,3,7,255,816,200,308,816
stim,319,319,0,609498.829,0.910,0.067,-0.043,-0.407,1913,0,87,2007,94,951,75,474,1,0.000,3,0,0.254,0.017,-0.240,0.020,-0.080,-0.137,-0.084,0.989,0.012,-0.012,-0.004,0.000,0.000,0.000,0.000,1,2,0,3,7,255,816,200,313,816
stim,319,319,0,609503.829,0.910,0.067,-0.043,-0.407,1923,0,87,2010,101,949,75,469,1,0.000,3,0,0.198,0.013,-0.180,0.020,-0.080,-0.137,-0.084,0.989,0.004,-0.012,-0.004,0.000,0.000,0.000,0.000,1,2,0,3,7,255,816,200,318,816
stim,319,319,0,609508.829,0.910,0.067,-0.043,-0.407,1928,0,79,2017,97,943,71,475,1,0.000,3,0,0.256,0.015,-0.240,-0.040,-0.080,-0.137,-0.085,0.991,0.004,-0.014,-0.004,0.000,0.000,0.000,0.000,1,2,0,3,7,255,816,200,323,816
stim,367,367,0,609513.829,0.910,0.067,-0.043,-0.407,1916,0,80,2005,103,951,75,468,1,0.000,3,0,0.185,0.014,-0.180,-0.040,-0.020,-0.137,-0.084,0.989,0.008,-0.012,-0.004,0.000,0.000,0.000,0.000,1,2,0,3,7,255,816,200,328,816
stim,367,367,0,609518.829,0.910,0.067,-0.043,-0.407,1925,0,85,2012,99,942,71,481,1,0.000,3,0,0.244,0.011,-0.240,-0.040,-0.020,-0.137,-0.083,0.989,0.008,-0.008,-0.006,0.000,0.000,0.000,0.000,1,2,0,3,7,255,816,200,333,816
stim,383,383,0,609523.829,0.910,0.067,-0.043,-0.407,1913,0,84,2005,101,952,77,470,1,0.000,3,0,0.150,0.006,-0.120,-0.040,-0.080,-0.137,-0.083,0.989,0.000,-0.006,-0.006,0.000,0.000,0.000,0.000,1,2,0,3,7,255,816,200,338,816
stim,383,383,0,609528.830,0.910,0.067,-0.043,-0.407,1925,0,77,2007,95,947,73,469,1,0.000,3,0,0.244,0.006,-0.180,-0.040,-0.160,-0.137,-0.084,0.989,0.000,-0.006,-0.006,0.000,0.000,0.000,0.000,1,2,0,3,7,255,816,200,343,816
stim,383,383,0,609533.829,0.910,0.067,-0.043,-0.407,1915,0,82,2007,97,951,71,471,1,0.000,3,0,0.128,0.007,-0.120,-0.040,-0.020,-0.137,-0.084,0.990,0.004,-0.006,-0.004,0.000,0.000,0.000,0.000,1,2,0,3,7,255,816,200,348,816
stim,383,383,0,609538.829,0.910,0.067,-0.043,-0.407,1917,0,85,2008,101,952,75,473,1,0.000,3,0,0.161,0.007,-0.120,-0.100,0.040,-0.136,-0.082,0.990,0.004,-0.006,-0.004,0.000,0.000,0.000,0.000,1,2,0,3,7,255,816,200,353,816
stim,383,383,0,609543.829,0.910,0.067,-0.043,-0.407,1927,0,84,2012,103,951,77,471,1,0.000,3,0,0.128,0.004,-0.120,-0.040,-0.020,-0.137,-0.083,0.990,-0.002,-0.004,0.000,0.000,0.000,0.000,0.000,1,2,0,3,7,255,816,200,358,816
stim,383,383,0,609548.829,0.910,0.067,-0.043,-0.407,1919,0,81,2011,96,945,71,471,1,0.000,3,0,0.128,0.006,-0.120,-0.040,-0.020,-0.138,-0.083,0.990,-0.004,-0.004,0.000,0.000,0.000,0.000,0.000,1,2,0,3,7,255,816,200,363,816
stim,383,383,0,609553.829,0.910,0.067,-0.043,-0.407,1915,0,80,2004,101,949,77,471,1,0.000,3,0,0.161,0.006,-0.120,-0.040,-0.100,-0.136,-0.083,0.990,-0.004,-0.004,0.000,0.000,0.000,0.000,0.000,1,2,0,3,7,255,816,200,368,816
stim,383,383,0,609558.829,0.910,0.067,-0.043,-0.407,1907,0,83,2007,99,949,72,469,1,0.000,3,0,0.123,0.006,-0.060,-0.040,-0.100,-0.135,-0.084,0.990,-0.002,0.006,0.002,0.000,0.000,0.000,0.000,1,2,0,3,7,255,816,200,373,816
stim,383,383,0,609563.829,0.910,0.067,-0.043,-0.407,1925,0,85,2013,91,953,77,473,1,0.000,3,0,0.075,0.006,-0.060,-0.040,-0.020,-0.137,-0.083,0.990,0.002,0.006,0.000,0.000,0.000,0.000,0.000,1,2,0,3,7,255,816,200,378,816
stim,383,383,0,609568.829,0.910,0.067,-0.043,-0.406,1934,0,77,2008,94,949,76,467,1,0.000,3,0,0.075,0.006,-0.060,-0.040,-0.020,-0.136,-0.083,0.990,0.006,0.000,0.000,0.000,0.000,0.000,0.000,1,2,0,3,7,255,816,200,383,816
stim,399,399,0,609573.829,0.910,0.067,-0.043,-0.406,1924,0,75,2028,89,947,73,467,1,0.000,3,0,0.123,0.006,-0.060,-0.040,-0.100,-0.136,-0.084,0.990,0.006,0.000,-0.002,0.000,0.000,0.000,0.000,1,2,0,3,7,255,816,200,388,816
stim,399,399,0,609578.829,0.910,0.067,-0.043,-0.406,1915,0,83,2009,93,948,75,472,1,0.000,3,0,0.157,0.006,-0.120,0.020,-0.100,-0.137,-0.083,0.989,0.006,0.000,-0.002,0.000,0.000,0.000,0.000,1,2,0,3,7,255,816,200,393,816
stim,415,415,0,609583.829,0.910,0.067,-0.043,-0.406,1916,0,78,2009,97,953,77,469,1,0.000,3,0,0.102,0.012,-0.060,0.020,-0.080,-0.136,-0.084,0.989,0.012,0.000,-0.006,0.000,0.000,0.000,0.000,1,2,0,3,7,255,816,200,398,816
stim,415,415,0,609588.829,0.910,0.067,-0.043,-0.406,1913,1,83,2013,94,947,75,474,1,0.000,3,0,0.066,0.010,-0.060,0.020,-0.020,-0.136,-0.084,0.989,0.010,0.000,-0.006,0.000,0.000,0.000,0.000,1,2,0,3,7,255,816,200,403,816
stim,415,415,0,609593.829,0.910,0.067,-0.043,-0.406,1913,0,81,2011,93,944,76,473,1,0.000,3,0,0.108,0.010,-0.060,0.080,0.040,-0.136,-0.084,0.989,0.010,0.000,-0.006,0.000,0.000,0.000,0.000,1,2,0,3,7,255,816,200,408,816
stim,415,415,0,609598.829,0.910,0.067,-0.043,-0.406,1903,0,86,2004,85,951,75,473,1,0.000,3,0,0.175,0.010,-0.120,0.080,0.100,-0.136,-0.082,0.990,0.010,0.000,-0.006,0.000,0.000,0.000,0.000,1,2,0,3,7,255,816,200,413,816
stim,431,431,0,609603.829,0.910,0.067,-0.043,-0.406,1904,0,87,2005,92,944,73,473,1,0.000,3,0,0.118,0.004,-0.060,0.020,0.100,-0.137,-0.084,0.990,0.004,0.000,-0.002,0.000,0.000,0.000,0.000,1,2,0,3,7,255,816,200,418,816
stim,431,431,0,609608.829,0.910,0.067,-0.043,-0.406,1909,0,83,2007,88,951,74,483,1,0.000,3,0,0.175,0.006,-0.120,0.080,0.100,-0.137,-0.083,0.990,-0.006,-0.002,0.004,0.000,0.000,0.000,0.000,1,2,0,3,7,255,816,200,423,816
stim,463,463,0,609613.829,0.910,0.067,-0.043,-0.406,1908,0,78,2013,89,944,75,475,1,0.000,3,0,0.118,0.006,-0.060,0.020,0.100,-0.137,-0.084,0.990,0.004,-0.004,0.004,0.000,0.000,0.000,0.000,1,2,0,3,7,255,816,200,428,816
stim,463,463,0,609618.829,0.910,0.067,-0.043,-0.406,1903,0,85,2003,91,951,75,469,1,0.000,3,0,0.118,0.007,-0.060,0.020,0.100,-0.137,-0.084,0.989,0.004,-0.006,0.000,0.000,0.000,0.000,0.000,1,2,0,3,7,255,816,200,433,816
stim,463,463,0,609623.829,0.910,0.067,-0.043,-0.406,1911,0,85,2012,85,949,73,469,1,0.000,3,0,0.179,0.013,0.000,0.080,0.160,-0.138,-0.084,0.989,0.004,-0.012,-0.008,0.000,0.000,0.000,0.000,1,2,0,3,7,255,816,200,438,816
stim,463,463,0,609628.829,0.910,0.067,-0.043,-0.406,1906,0,79,1997,81,947,75,467,1,0.000,3,0,0.118,0.006,-0.060,0.020,0.100,-0.137,-0.083,0.990,0.002,-0.006,-0.008,0.000,0.000,0.000,0.000,1,2,0,3,7,255,816,200,443,816
stim,463,463,0,609633.829,0.910,0.067,-0.043,-0.406,1909,0,80,2007,84,953,75,467,1,0.000,3,0,0.102,0.003,0.000,0.020,0.100,-0.135,-0.083,0.991,0.002,0.002,0.004,0.000,0.000,0.000,0.000,1,2,0,3,7,255,816,200,448,816
stim,463,463,0,609638.829,0.910,0.067,-0.043,-0.406,1901,0,79,2005,80,944,75,470,1,0.000,3,0,0.172,0.004,-0.060,0.020,0.160,-0.137,-0.083,0.990,-0.004,0.002,0.004,0.000,0.000,0.000,0.000,1,2,0,3,7,255,816,200,453,816
stim,463,463,0,609643.829,0.910,0.067,-0.043,-0.406,1903,0,85,2000,79,948,76,473,1,0.000,3,0,0.175,0.004,-0.060,-0.040,0.160,-0.137,-0.083,0.990,-0.004,0.002,0.000,0.000,0.000,0.000,0.000,1,2,0,3,7,255,816,200,458,816
stim,479,479,0,609648.829,0.910,0.067,-0.043,-0.406,1912,0,79,2011,78,944,75,469,1,0.000,3,0,0.161,0.004,0.000,0.020,0.160,-0.136,-0.084,0.990,-0.004,-0.002,0.000,0.000,0.000,0.000,0.000,1,2,0,3,7,255,816,200,463,816
stim,479,479,0,609653.829,0.910,0.067,-0.043,-0.406,1901,0,87,2004,77,944,76,472,1,0.000,3,0,0.175,0.002,-0.060,-0.040,0.160,-0.137,-0.083,0.990,0.000,-0.002,0.004,0.000,0.000,0.000,0.000,1,2,0,3,7,255,816,200,468,816
stim,479,479,0,609658.829,0.910,0.067,-0.043,-0.406,1911,0,82,2013,75,951,73,469,1,0.000,3,0,0.161,0.006,0.000,0.020,0.160,-0.135,-0.083,0.989,0.006,0.000,0.004,0.000,0.000,0.000,0.000,1,2,0,3,7,255,816,200,473,816
stim,479,479,0,609663.829,0.910,0.067,-0.043,-0.406,1911,0,81,2011,74,948,73,471,1,0.000,3,0,0.229,0.010,-0.060,0.020,0.220,-0.136,-0.083,0.990,0.000,0.010,-0.002,0.000,0.000,0.000,0.000,1,2,0,3,7,255,816,200,478,816
stim,496,496,0,609668.829,0.910,0.067,-0.043,-0.406,1911,0,83,2009,75,944,73,470,1,0.000,3,0,0.229,0.010,-0.060,0.020,0.220,-0.137,-0.083,0.991,0.000,0.010,-0.002,0.000,0.000,0.000,0.000,1,2,0,3,7,255,816,200,483,816
stim,496,496,0,609673.829,0.910,0.067,-0.043,-0.406,1909,0,87,2005,78,947,81,471,1,0.000,3,0,0.172,0.010,-0.060,0.020,0.160,-0.136,-0.083,0.990,-0.002,0.010,0.002,0.000,0.000,0.000,0.000,1,2,0,3,7,255,816,200,488,816
stim,496,496,0,609678.829,0.910,0.067,-0.043,-0.406,1901,0,83,1998,75,943,73,467,1,0.000,3,0,0.229,0.003,-0.060,0.020,0.220,-0.137,-0.083,0.989,-0.002,0.002,0.002,0.000,0.000,0.000,0.000,1,2,0,3,7,255,816,200,493,816
stim,496,496,0,609683.829,0.910,0.067,-0.043,-0.406,1915,0,82,2012,77,946,79,469,1,0.000,3,0,0.221,0.002,0.000,0.020,0.220,-0.137,-0.084,0.990,-0.002,0.000,0.000,0.000,0.000,0.000,0.000,1,2,0,3,7,255,816,200,498,816
stim,511,511,0,609688.829,0.910,0.067,-0.043,-0.406,1911,0,85,2004,73,948,76,475,1,0.000,3,0,0.287,0.004,-0.060,0.020,0.280,-0.137,-0.082,0.989,-0.004,0.000,-0.010,0.000,0.000,0.000,0.000,1,2,0,3,7,255,816,200,503,816
stim,511,511,0,609693.829,0.910,0.067,-0.043,-0.406,1915,0,85,2007,73,951,73,481,1,0.000,3,0,0.229,0.010,-0.060,0.020,0.220,-0.138,-0.083,0.989,-0.006,-0.008,-0.008,0.000,0.000,0.000,0.000,1,2,0,3,7,255,816,200,508,816
stim,531,531,0,609698.829,0.910,0.067,-0.043,-0.406,1913,0,87,2013,73,946,77,473,1,0.000,3,0,0.165,0.006,0.000,-0.040,0.160,-0.137,-0.083,0.990,-0.006,0.000,-0.008,0.000,0.000,0.000,0.000,1,2,0,3,7,255,816,200,513,816
stim,531,531,0,609703.829,0.910,0.067,-0.043,-0.406,1912,0,87,2004,63,951,73,475,1,0.000,3,0,0.161,0.000,0.000,0.020,0.160,-0.136,-0.084,0.989,0.000,0.000,-0.006,0.000,0.000,0.000,0.000,1,2,0,3,7,255,816,200,518,816
stim,531,531,0,609708.829,0.910,0.067,-0.043,-0.406,1908,0,83,2003,71,943,74,470,1,0.000,3,0,0.165,0.004,0.000,-0.040,0.160,-0.136,-0.083,0.990,0.000,0.004,-0.002,0.000,0.000,0.000,0.000,1,2,0,3,7,255,816,200,523,816
stim,531,531,0,609713.829,0.910,0.067,-0.043,-0.406,1913,0,84,2006,68,941,73,469,1,0.000,3,0,0.175,0.006,0.060,-0.040,0.160,-0.137,-0.083,0.990,-0.004,0.004,-0.002,0.000,0.000,0.000,0.000,1,2,0,3,7,255,816,200,528,816
stim,562,562,0,609718.829,0.910,0.067,-0.043,-0.406,1925,0,85,2004,75,944,74,468,1,0.000,3,0,0.108,0.010,0.000,-0.040,0.100,-0.137,-0.083,0.992,-0.006,0.008,0.004,0.000,0.000,0.000,0.000,1,2,0,3,7,255,816,200,533,816
stim,562,562,0,609723.829,0.910,0.067,-0.043,-0.406,1914,0,87,2004,67,952,75,472,1,0.000,3,0,0.057,0.011,0.000,-0.040,0.040,-0.138,-0.083,0.991,-0.010,0.004,0.010,0.000,0.000,0.000,0.000,1,2,0,3,7,255,816,200,538,816
stim,563,563,0,609728.830,0.910,0.067,-0.043,-0.406,1915,0,84,2000,71,944,74,468,1,0.000,3,0,0.108,0.015,0.000,-0.040,0.100,-0.138,-0.082,0.991,-0.014,0.004,0.014,0.000,0.000,0.000,0.000,1,2,0,3,7,255,816,200,543,816
stim,563,563,0,609733.829,0.910,0.067,-0.043,-0.406,1923,0,80,2011,75,942,76,471,1,0.000,3,0,0.057,0.015,0.000,-0.040,0.040,-0.137,-0.082,0.991,-0.014,0.004,0.010,0.000,0.000,0.000,0.000,1,2,0,3,7,255,816,200,548,816
stim,563,563,0,609738.829,0.910,0.067,-0.043,-0.406,1911,0,82,2009,72,948,73,470,1,0.000,3,0,0.133,0.016,-0.120,-0.040,0.040,-0.138,-0.082,0.991,-0.016,0.004,0.008,0.000,0.000,0.000,0.000,1,2,0,3,7,255,816,200,553,816
stim,563,563,0,609743.829,0.910,0.067,-0.043,-0.406,1916,0,83,2011,67,940,73,476,1,0.000,3,0,0.210,0.012,-0.180,-0.100,0.040,-0.137,-0.083,0.991,-0.010,0.006,0.008,0.000,0.000,0.000,0.000,1,2,0,3,7,255,816,200,558,816
stim,563,563,0,609748.829,0.910,0.067,-0.043,-0.406,1915,0,87,2000,71,949,77,474,1,0.000,3,0,0.207,0.004,-0.180,-0.100,-0.020,-0.137,-0.083,0.990,-0.004,0.002,0.008,0.000,0.000,0.000,0.000,1,2,0,3,7,255,816,200,563,816
stim,575,575,0,609753.829,0.910,0.067,-0.043,-0.406,1901,0,78,1995,65,951,75,467,1,0.000,3,0,0.305,0.003,-0.240,-0.160,-0.100,-0.137,-0.084,0.990,-0.002,0.002,0.004,0.000,0.000,0.000,0.000,1,2,0,3,7,255,816,200,568,816
stim,575,575,0,609758.829,0.910,0.067,-0.043,-0.406,1911,0,80,2004,70,950,73,468,1,0.000,3,0,0.289,0.003,-0.240,-0.160,-0.020,-0.136,-0.083,0.989,-0.002,0.002,0.004,0.000,0.000,0.000,0.000,1,2,0,3,7,255,816,200,573,816
stim,575,575,0,609763.829,0.910,0.067,-0.043,-0.406,1912,0,85,2011,69,963,77,473,1,0.000,3,0,0.229,0.006,-0.180,-0.100,-0.100,-0.137,-0.082,0.990,-0.002,0.006,-0.002,0.000,0.000,0.000,0.000,1,2,0,3,7,255,816,200,578,816
stim,597,597,0,609768.829,0.910,0.067,-0.043,-0.406,1909,0,86,2002,70,952,78,470,1,0.000,3,0,0.358,0.007,-0.320,-0.160,-0.020,-0.137,-0.083,0.990,-0.004,0.006,-0.002,0.000,0.000,0.000,0.000,1,2,0,3,7,255,816,200,583,816
stim,597,597,0,609773.829,0.910,0.067,-0.043,-0.406,1904,0,79,1999,75,952,75,468,1,0.000,3,0,0.279,0.008,-0.240,-0.100,-0.100,-0.138,-0.082,0.991,-0.008,-0.002,0.004,0.000,0.000,0.000,0.000,1,2,0,3,7,255,816,200,588,816
stim,607,607,0,609778.829,0.910,0.067,-0.043,-0.406,1908,0,87,2000,72,955,81,475,1,0.000,3,0,0.392,0.004,-0.320,-0.160,-0.160,-0.136,-0.083,0.991,-0.004,-0.002,0.010,0.000,0.000,0.000,0.000,1,2,0,3,7,255,816,200,593,816
stim,607,607,0,609783.829,0.910,0.067,-0.043,-0.406,1913,0,82,2007,71,957,75,467,1,0.000,3,0,0.371,0.010,-0.320,-0.100,-0.160,-0.138,-0.083,0.989,-0.010,-0.002,0.010,0.000,0.000,0.000,0.000,1,2,0,3,7,255,816,200,598,816
stim,607,607,0,609788.829,0.910,0.067,-0.043,-0.406,1917,0,84,2008,73,960,76,473,1,0.000,3,0,0.467,0.012,-0.380,-0.160,-0.220,-0.137,-0.082,0.990,-0.010,0.006,0.004,0.000,0.000,0.000,0.000,1,2,0,3,7,255,816,200,603,816
stim,607,607,0,609793.829,0.910,0.067,-0.043,-0.406,1911,0,83,2009,72,969,76,469,1,0.000,3,0,0.450,0.010,-0.380,-0.100,-0.220,-0.137,-0.083,0.991,-0.010,-0.002,0.004,0.000,0.000,0.000,0.000,1,2,0,3,7,255,816,200,608,816
stim,627,627,0,609798.829,0.910,0.067,-0.043,-0.406,1903,0,87,2004,71,967,77,473,1,0.000,3,0,0.546,0.006,-0.440,-0.160,-0.280,-0.136,-0.083,0.990,0.000,0.006,0.004,0.000,0.000,0.000,0.000,1,2,0,3,7,255,816,200,613,816
stim,627,627,0,609803.829,0.910,0.067,-0.043,-0.406,1909,0,82,2005,71,958,75,469,1,0.000,3,0,0.498,0.004,-0.380,-0.160,-0.280,-0.137,-0.083,0.991,0.004,0.000,0.008,0.000,0.000,0.000,0.000,1,2,0,3,7,255,816,200,618,816
stim,627,627,0,609808.829,0.910,0.067,-0.043,-0.406,1929,0,84,2005,71,959,74,471,1,0.000,3,0,0.569,0.012,-0.500,-0.160,-0.220,-0.136,-0.083,0.991,0.010,0.006,0.006,0.000,0.000,0.000,0.000,1,2,0,3,7,255,816,200,623,816
stim,627,627,0,609813.829,0.910,0.067,-0.043,-0.406,1902,0,89,2005,68,971,79,472,1,0.000,3,0,0.613,0.012,-0.500,-0.100,-0.340,-0.136,-0.083,0.990,0.010,0.006,0.006,0.000,0.000,0.000,0.000,1,2,0,3,7,255,816,200,628,816
stim,627,627,0,609818.829,0.910,0.067,-0.043,-0.406,1912,0,86,2005,69,968,80,469,1,0.000,3,0,0.642,0.012,-0.500,-0.040,-0.400,-0.136,-0.083,0.990,0.010,0.006,0.002,0.000,0.000,0.000,0.000,1,2,0,3,7,255,816,200,633,816
stim,671,671,0,609823.829,0.910,0.067,-0.043,-0.406,1905,0,85,1998,72,958,81,471,1,0.000,3,0,0.596,0.012,-0.440,-0.040,-0.400,-0.135,-0.084,0.990,0.010,0.006,-0.002,0.000,0.000,0.000,0.000,1,2,0,3,7,255,816,200,638,816
stim,671,671,0,609828.829,0.910,0.067,-0.043,-0.406,1909,0,80,2007,72,967,76,467,1,0.000,3,0,0.597,0.017,-0.380,0.020,-0.460,-0.135,-0.084,0.990,0.016,0.006,-0.002,0.000,0.000,0.000,0.000,1,2,0,3,7,255,816,200,643,816
stim,671,671,0,609833.829,0.910,0.067,-0.043,-0.406,1907,0,83,1992,67,967,77,463,1,0.000,3,0,0.693,0.020,-0.560,0.080,-0.400,-0.135,-0.084,0.990,0.018,0.008,-0.004,0.000,0.000,0.000,0.000,1,2,0,3,7,255,816,200,648,816
stim,671,671,0,609838.829,0.910,0.067,-0.043,-0.406,1907,0,87,2000,72,969,83,471,1,0.000,3,0,0.702,0.020,-0.560,0.140,-0.400,-0.136,-0.083,0.989,0.018,0.008,-0.004,0.000,0.000,0.000,0.000,1,2,0,3,7,255,816,200,653,816
stim,671,671,0,609843.829,0.910,0.067,-0.043,-0.406,1912,0,85,2009,72,967,79,469,1,0.000,3,0,0.738,0.010,-0.560,0.140,-0.460,-0.136,-0.083,0.990,0.008,0.006,-0.004,0.000,0.000,0.000,0.000,1,2,0,3,7,255,816,200,658,816
stim,671,671,0,609848.829,0.910,0.067,-0.043,-0.406,1916,0,88,2007,69,960,79,468,1,0.000,3,0,0.738,0.009,-0.560,0.140,-0.460,-0.136,-0.084,0.991,0.008,0.004,-0.002,0.000,0.000,0.000,0.000,1,2,0,3,7,255,816,200,663,816
stim,671,671,0,609853.829,0.910,0.067,-0.043,-0.406,1912,0,87,2005,71,965,75,471,1,0.000,3,0,0.637,0.011,-0.500,0.200,-0.340,-0.135,-0.085,0.990,0.010,0.004,-0.002,0.000,0.000,0.000,0.000,1,2,0,3,7,255,816,200,668,816
stim,671,671,0,609858.829,0.910,0.067,-0.043,-0.406,1919,0,85,2004,71,959,75,467,1,0.000,3,0,0.736,0.011,-0.560,0.260,-0.400,-0.137,-0.083,0.989,0.010,0.004,-0.002,0.000,0.000,0.000,0.000,1,2,0,3,7,255,816,200,673,816
stim,694,694,0,609863.829,0.910,0.067,-0.043,-0.406,1925,0,87,2019,74,967,77,472,1,0.000,3,0,0.752,0.010,-0.560,0.200,-0.460,-0.136,-0.084,0.989,0.010,0.000,-0.006,0.000,0.000,0.000,0.000,1,2,0,3,7,255,816,200,678,816
stim,694,694,0,609868.829,0.910,0.067,-0.043,-0.406,1912,0,88,2010,73,959,83,472,1,0.000,3,0,0.792,0.011,-0.560,0.320,-0.460,-0.136,-0.084,0.989,0.010,0.004,-0.006,0.000,0.000,0.000,0.000,1,2,0,3,7,255,816,200,683,816
stim,695,695,0,609873.829,0.910,0.067,-0.043,-0.406,1917,0,84,2013,72,967,77,461,1,0.000,3,0,0.741,0.011,-0.440,0.380,-0.460,-0.136,-0.085,0.989,0.010,-0.004,-0.010,0.000,0.000,0.000,0.000,1,2,0,3,7,255,816,200,688,816
stim,695,695,0,609878.829,0.910,0.067,-0.043,-0.406,1911,0,88,2015,72,959,82,471,1,0.000,3,0,0.638,0.013,-0.320,0.380,-0.400,-0.135,-0.084,0.989,0.012,0.004,-0.008,0.000,0.000,0.000,0.000,1,2,0,3,7,255,816,200,693,816
stim,703,703,0,609883.829,0.910,0.067,-0.043,-0.406,1911,0,87,2011,64,969,78,471,1,0.000,3,0,0.638,0.013,-0.320,0.380,-0.400,-0.137,-0.083,0.990,0.012,0.004,-0.008,0.000,0.000,0.000,0.000,1,2,0,3,7,255,816,200,698,816
stim,703,703,0,609888.829,0.910,0.067,-0.043,-0.406,1915,0,84,2008,73,965,80,467,1,0.000,3,0,0.740,0.010,-0.440,0.440,-0.400,-0.135,-0.083,0.991,0.008,0.006,0.004,0.000,0.000,0.000,0.000,1,2,0,3,7,255,816,200,703,816
stim,719,719,0,609893.829,0.910,0.067,-0.043,-0.406,1915,0,83,2019,72,958,83,471,1,0.000,3,0,0.741,0.012,-0.440,0.380,-0.460,-0.135,-0.083,0.990,0.002,0.012,0.004,0.000,0.000,0.000,0.000,1,2,0,3,7,255,816,200,708,816
stim,719,719,0,609898.829,0.910,0.067,-0.043,-0.406,1915,0,84,2013,68,952,76,471,1,0.000,3,0,0.636,0.014,-0.380,0.380,-0.340,-0.136,-0.086,0.988,0.008,0.012,0.002,0.000,0.000,0.000,0.000,1,2,0,3,7,255,816,200,713,816
stim,719,719,1,609903.829,0.910,0.067,-0.043,-0.406,1925,0,86,2011,74,951,81,468,1,0.000,3,0,0.636,0.009,-0.380,0.380,-0.340,-0.136,-0.084,0.988,0.008,-0.004,-0.014,0.000,0.000,0.000,0.000,1,2,1,3,7,255,816,200,718,816
stim,719,719,1,609908.830,0.910,0.067,-0.043,-0.406,1919,0,90,2005,73,949,81,472,1,0.000,3,0,0.612,0.016,-0.320,0.440,-0.280,-0.138,-0.085,0.988,0.008,-0.014,-0.014,0.000,0.000,0.000,0.000,1,2,1,3,7,255,816,200,723,816
stim,768,768,1,609913.829,0.910,0.067,-0.043,-0.406,1920,0,90,2024,75,944,84,472,1,0.000,3,0,0.612,0.007,-0.320,0.440,-0.280,-0.137,-0.084,0.989,0.004,-0.006,-0.012,0.000,0.000,0.000,0.000,1,2,1,3,7,255,816,200,728,816
stim,768,768,1,609918.829,0.910,0.067,-0.043,-0.406,1917,0,92,2016,77,948,84,469,1,0.000,3,0,0.603,0.010,-0.380,0.440,-0.160,-0.137,-0.084,0.989,0.002,-0.010,-0.010,0.000,0.000,0.000,0.000,1,2,1,3,7,255,816,200,733,816
stim,768,768,1,609923.829,0.910,0.067,-0.043,-0.406,1930,0,89,2028,63,951,75,467,1,0.000,3,0,0.477,0.009,-0.240,0.380,-0.160,-0.136,-0.086,0.989,0.004,-0.008,-0.004,0.000,0.000,0.000,0.000,1,2,1,3,7,255,816,200,738,816
stim,768,768,1,609928.829,0.910,0.067,-0.043,-0.406,1927,0,85,2009,67,943,81,471,1,0.000,3,0,0.400,0.008,-0.240,0.320,-0.020,-0.137,-0.083,0.989,0.002,-0.008,-0.004,0.000,0.000,0.000,0.000,1,2,1,3,7,255,816,200,743,816
stim,768,768,1,609933.829,0.910,0.067,-0.043,-0.406,1927,0,87,2024,71,947,75,466,1,0.000,3,0,0.368,0.020,-0.180,0.320,-0.020,-0.137,-0.086,0.989,0.018,-0.008,-0.006,0.000,0.000,0.000,0.000,1,2,1,3,7,255,816,200,748,816
stim,768,768,1,609938.829,0.910,0.067,-0.043,-0.406,1917,0,85,2015,72,947,77,469,1,0.000,3,0,0.400,0.016,-0.180,0.320,0.160,-0.137,-0.085,0.989,0.010,-0.012,-0.006,0.000,0.000,0.000,0.000,1,2,1,3,7,255,816,200,753,816
stim,783,783,1,609943.829,0.910,0.067,-0.043,-0.406,1931,0,87,2019,74,949,79,469,1,0.000,3,0,0.335,0.016,0.000,0.320,0.100,-0.138,-0.083,0.989,0.010,-0.012,-0.004,0.000,0.000,0.000,0.000,1,2,1,3,7,255,816,200,758,816
stim,783,783,1,609948.829,0.910,0.067,-0.043,-0.406,1935,0,88,2020,61,949,75,468,1,0.000,3,0,0.272,0.012,0.120,0.200,-0.140,-0.136,-0.082,0.990,-0.010,-0.006,-0.004,0.000,0.000,0.000,0.000,1,2,1,3,7,255,816,200,763,816
stim,783,783,1,609953.829,0.910,0.067,-0.043,-0.406,1931,0,87,2017,69,951,75,468,1,0.000,3,0,0.388,0.012,-0.180,0.200,0.280,-0.136,-0.092,0.990,-0.010,-0.006,0.002,0.000,0.000,0.000,0.000,1,2,1,3,7,255,816,200,768,816
stim,783,783,1,609958.829,0.910,0.067,-0.043,-0.406,1919,0,86,2021,73,950,85,464,1,0.000,3,0,0.760,0.030,-0.260,0.140,0.700,-0.138,-0.086,0.986,0.012,-0.028,0.002,0.000,0.000,0.000,0.000,1,2,1,3,7,255,816,200,773,816
stim,783,783,1,609963.829,0.910,0.067,-0.043,-0.406,1920,0,83,2015,70,943,79,463,1,0.000,3,0,0.662,0.030,0.660,-0.040,0.040,-0.140,-0.072,0.988,0.012,-0.028,-0.024,0.000,0.000,0.000,0.000,1,2,1,3,7,255,816,200,778,816
stim,783,783,1,609968.830,0.910,0.067,-0.043,-0.406,1919,0,84,2019,60,947,77,468,1,0.000,3,0,0.256,0.030,0.000,0.200,0.160,-0.135,-0.100,0.991,0.012,-0.028,-0.024,0.000,0.000,0.000,0.000,1,2,1,3,7,255,816,200,783,816
stim,799,799,1,609973.829,0.910,0.067,-0.043,-0.406,1929,0,84,2019,62,946,75,469,1,0.000,3,0,0.595,0.073,0.240,-0.160,0.520,-0.141,-0.077,0.985,-0.072,0.010,-0.024,0.000,0.000,0.000,0.000,1,2,1,3,7,255,816,200,788,816
stim,799,799,1,609978.829,0.910,0.067,-0.043,-0.406,1929,0,85,2024,67,938,75,471,1,0.000,3,0,0.702,0.045,0.240,-0.160,0.640,-0.129,-0.083,0.993,0.044,0.010,0.018,0.000,0.000,0.000,0.000,1,2,1,3,7,255,816,200,793,816
stim,799,799,1,609983.829,0.910,0.067,-0.043,-0.406,1925,0,89,2021,67,949,77,471,1,0.000,3,0,0.779,0.032,0.480,0.200,0.580,-0.154,-0.095,0.979,-0.030,0.010,-0.042,0.000,0.000,0.000,0.000,1,2,1,3,7,255,816,200,798,816
stim,799,799,1,609988.829,0.910,0.067,-0.043,-0.406,1931,0,85,2023,66,951,75,467,1,0.000,3,0,0.801,0.079,0.180,-0.780,-0.020,-0.118,-0.071,1.008,0.036,0.070,0.018,0.000,0.000,0.000,0.000,1,2,1,3,7,255,816,200,803,816
stim,816,816,1,609993.829,0.910,0.067,-0.043,-0.406,1920,0,85,2012,67,951,73,467,1,0.000,3,0,2.720,0.206,1.100,0.200,2.480,-0.155,-0.088,0.963,-0.030,-0.204,-0.066,0.000,0.000,0.000,0.000,1,2,1,3,7,255,816,200,808,816
stim,816,816,1,609998.829,0.910,0.067,-0.043,-0.406,1929,0,85,2025,59,941,75,468,1,0.000,3,0,3.008,0.086,-0.980,0.140,-2.840,-0.135,-0.105,1.021,0.036,-0.078,0.138,0.000,0.000,0.000,0.000,1,2,1,3,7,255,816,200,813,816
stim,831,831,1,610003.829,0.910,0.067,-0.043,-0.406,1929,0,87,2015,56,949,76,467,1,0.000,3,0,5.335,0.119,2.200,-2.480,4.180,-0.110,-0.030,0.960,-0.090,-0.078,-0.228,0.000,0.000,0.000,0.000,1,2,1,3,7,255,816,200,2,816
stim,831,831,1,610008.829,0.910,0.067,-0.043,-0.406,1934,0,87,2016,59,949,76,469,1,0.000,3,0,3.904,0.159,-0.060,3.860,0.580,-0.173,-0.134,0.998,0.138,-0.078,0.170,0.000,0.000,0.000,0.000,1,2,1,3,7,255,816,200,7,816
stim,831,831,1,610013.829,0.910,0.067,-0.043,-0.406,1930,0,85,2019,59,951,75,469,1,0.000,3,0,5.515,0.076,-0.800,-4.860,-2.480,-0.134,-0.091,1.014,0.076,0.008,0.170,0.000,0.000,0.000,0.000,1,2,1,3,7,255,816,200,12,816
stim,831,831,1,610018.829,0.910,0.067,-0.043,-0.406,1916,0,83,2012,57,944,83,469,1,0.000,3,0,4.014,0.076,2.060,1.860,2.900,-0.110,-0.036,0.948,0.076,0.008,0.170,0.000,0.000,0.000,0.000,1,2,1,3,7,255,816,200,17,816
stim,863,863,1,610023.829,0.910,0.067,-0.043,-0.406,1919,0,89,2016,69,943,83,474,1,0.000,3,0,2.418,0.051,0.780,0.200,2.280,-0.143,-0.094,1.011,0.050,0.008,0.220,0.000,0.000,0.000,0.000,1,2,1,3,7,255,816,200,22,816
stim,863,863,1,610028.829,0.910,0.067,-0.043,-0.406,1926,0,78,2018,61,951,78,471,1,0.000,3,0,1.724,0.094,-0.560,-1.500,-0.640,-0.155,-0.110,0.996,0.050,-0.080,0.102,0.000,0.000,0.000,0.000,1,2,1,3,7,255,816,200,27,816
stim,863,863,1,610033.829,0.910,0.067,-0.043,-0.406,1934,0,85,2013,57,952,75,466,1,0.000,3,0,0.631,0.094,0.420,-0.460,0.100,-0.133,-0.078,0.985,0.050,-0.080,0.102,0.000,0.000,0.000,0.000,1,2,1,3,7,255,816,200,32,816
stim,863,863,1,610038.829,0.910,0.067,-0.043,-0.406,1931,0,89,2015,64,951,81,468,1,0.000,3,0,1.761,0.056,1.040,-0.340,1.380,-0.129,-0.071,0.985,-0.016,0.054,-0.052,0.000,0.000,0.000,0.000,1,2,1,3,7,255,816,200,37,816
stim,863,863,1,610043.829,0.910,0.067,-0.043,-0.406,1932,0,85,2021,59,943,84,467,1,0.000,3,0,1.484,0.056,0.660,-0.160,1.320,-0.132,-0.081,0.991,-0.016,0.054,-0.052,0.000,0.000,0.000,0.000,1,2,1,3,7,255,816,200,42,816
stim,863,863,1,610048.829,0.910,0.067,-0.043,-0.406,1929,0,73,2013,61,951,79,460,1,0.000,3,0,1.115,0.047,0.300,-0.520,0.940,-0.138,-0.085,0.994,0.008,0.046,0.002,0.000,0.000,0.000,0.000,1,2,1,3,7,255,816,200,47,816
stim,863,863,1,610053.829,0.910,0.067,-0.043,-0.407,1929,0,77,2015,63,949,80,462,1,0.000,3,0,0.943,0.020,0.360,-0.520,0.700,-0.140,-0.085,0.990,0.008,-0.018,0.010,0.000,0.000,0.000,0.000,1,2,1,3,7,255,816,200,52,816
stim,879,879,1,610058.829,0.910,0.067,-0.043,-0.407,1919,0,79,2013,75,948,79,457,1,0.000,3,0,1.013,0.031,0.420,-0.600,0.700,-0.139,-0.086,0.991,0.008,-0.030,0.018,0.000,0.000,0.000,0.000,1,2,1,3,7,255,816,200,57,816
stim,895,895,1,610063.829,0.910,0.067,-0.043,-0.407,1920,0,79,2015,79,948,83,467,1,0.000,3,0,0.995,0.031,0.480,-0.520,0.700,-0.138,-0.084,0.990,0.006,-0.030,0.010,0.000,0.000,0.000,0.000,1,2,1,3,7,255,816,200,62,816
stim,895,895,1,610068.829,0.910,0.067,-0.043,-0.407,1937,0,87,2020,79,957,78,467,1,0.000,3,0,1.068,0.018,0.540,-0.520,0.760,-0.136,-0.085,0.991,0.012,-0.014,0.014,0.000,0.000,0.000,0.000,1,2,1,3,7,255,816,200,67,816
stim,895,895,1,610073.829,0.910,0.067,-0.043,-0.407,1927,0,88,2013,84,969,79,466,1,0.000,3,0,1.083,0.008,0.480,-0.520,0.820,-0.137,-0.079,0.990,0.006,-0.006,0.006,0.000,0.000,0.000,0.000,1,2,1,3,7,255,816,200,72,816
stim,895,895,1,610078.829,0.910,0.067,-0.043,-0.407,1940,0,91,2019,59,973,85,466,1,0.000,3,0,1.031,0.014,0.480,-0.400,0.820,-0.136,-0.082,0.990,0.002,0.014,0.002,0.000,0.000,0.000,0.000,1,2,1,3,7,255,816,200,77,816
stim,911,911,1,610083.829,0.910,0.067,-0.043,-0.407,1919,0,88,2013,81,971,78,464,1,0.000,3,0,0.983,0.016,0.420,-0.460,0.760,-0.135,-0.082,0.989,0.002,0.016,0.000,0.000,0.000,0.000,0.000,1,2,1,3,7,255,816,200,82,816
stim,911,911,1,610088.829,0.910,0.067,-0.043,-0.407,1930,0,85,2020,91,971,78,471,1,0.000,3,0,0.910,0.016,0.300,-0.400,0.760,-0.136,-0.082,0.990,0.002,0.016,-0.004,0.000,0.000,0.000,0.000,1,2,1,3,7,255,816,200,87,816
stim,927,927,1,610093.830,0.910,0.067,-0.043,-0.407,1935,0,85,2012,100,979,77,462,1,0.000,3,0,0.883,0.016,0.360,-0.400,0.700,-0.135,-0.083,0.989,0.004,0.016,-0.008,0.000,0.000,0.000,0.000,1,2,1,3,7,255,816,200,92,816
stim,927,927,1,610098.829,0.910,0.067,-0.043,-0.407,1935,0,79,2021,100,971,80,463,1,0.000,3,0,0.912,0.016,0.360,-0.460,0.700,-0.137,-0.082,0.990,-0.002,0.016,-0.004,0.000,0.000,0.000,0.000,1,2,1,3,7,255,816,200,97,816
stim,927,927,0,610103.829,0.910,0.067,-0.043,-0.407,1935,0,85,2015,91,970,83,459,1,0.000,3,0,0.843,0.013,0.300,-0.460,0.640,-0.137,-0.085,0.991,0.012,0.006,-0.002,0.000,0.000,0.000,0.000,1,2,0,3,7,255,816,200,102,816
stim,927,927,0,610108.829,0.910,0.067,-0.043,-0.407,1916,0,83,2007,103,967,81,455,1,0.000,3,0,0.841,0.008,0.240,-0.400,0.700,-0.138,-0.081,0.991,-0.006,0.006,0.008,0.000,0.000,0.000,0.000,1,2,0,3,7,255,816,200,107,816
stim,927,927,0,610113.829,0.910,0.067,-0.043,-0.407,1919,0,80,2024,101,972,75,459,1,0.000,3,0,0.784,0.017,0.300,-0.340,0.640,-0.137,-0.085,0.991,0.014,-0.010,0.010,0.000,0.000,0.000,0.000,1,2,0,3,7,255,816,200,112,816
stim,961,961,0,610118.829,0.910,0.067,-0.043,-0.407,1935,0,87,2023,87,981,81,457,1,0.000,3,0,0.763,0.008,0.360,-0.340,0.580,-0.135,-0.081,0.990,-0.002,0.008,0.008,0.000,0.000,0.000,0.000,1,2,0,3,7,255,816,200,117,816
stim,961,961,0,610123.829,0.910,0.067,-0.043,-0.407,1920,0,88,2027,90,971,82,465,1,0.000,3,0,0.672,0.018,0.420,-0.340,0.400,-0.137,-0.085,0.992,0.014,-0.012,0.010,0.000,0.000,0.000,0.000,1,2,0,3,7,255,816,200,122,816
stim,962,962,0,610128.830,0.910,0.067,-0.043,-0.407,1935,0,85,2019,99,981,85,469,1,0.000,3,0,0.567,0.019,0.300,-0.340,0.340,-0.137,-0.085,0.991,0.016,-0.010,0.014,0.000,0.000,0.000,0.000,1,2,0,3,7,255,816,200,127,816
stim,962,962,0,610133.829,0.910,0.067,-0.043,-0.407,1939,0,93,2023,93,983,81,463,1,0.000,3,0,0.502,0.020,0.240,-0.280,0.340,-0.138,-0.083,0.990,0.016,-0.012,0.014,0.000,0.000,0.000,0.000,1,2,0,3,7,255,816,200,132,816
stim,963,963,0,610138.829,0.910,0.067,-0.043,-0.407,1929,0,89,2011,98,981,80,473,1,0.000,3,0,0.402,0.012,0.240,-0.280,0.160,-0.137,-0.084,0.991,0.006,-0.010,0.010,0.000,0.000,0.000,0.000,1,2,0,3,7,255,816,200,137,816
stim,963,963,0,610143.829,0.910,0.067,-0.043,-0.407,1931,0,88,2023,89,983,83,465,1,0.000,3,0,0.328,0.008,0.060,-0.280,0.160,-0.133,-0.079,0.991,0.000,-0.008,0.006,0.000,0.000,0.000,0.000,1,2,0,3,7,255,816,200,142,816
stim,996,996,0,610148.829,0.910,0.067,-0.043,-0.407,1920,0,91,2010,89,978,81,464,1,0.000,3,0,0.524,0.054,-0.120,-0.220,0.460,-0.130,-0.076,0.988,0.000,0.054,0.000,0.000,0.000,0.000,0.000,1,2,0,3,7,255,816,200,147,816
stim,996,996,0,610153.829,0.910,0.067,-0.043,-0.407,1931,0,87,2021,91,979,81,464,1,0.000,3,0,0.894,0.089,0.120,-0.100,0.880,-0.131,-0.074,0.986,-0.010,0.088,-0.030,0.000,0.000,0.000,0.000,1,2,0,3,7,255,816,200,152,816
stim,996,996,0,610158.829,0.910,0.067,-0.043,-0.407,1926,0,82,2005,88,973,75,463,1,0.000,3,0,1.092,0.091,0.720,-0.040,0.820,-0.140,-0.083,0.990,-0.022,0.088,-0.030,0.000,0.000,0.000,0.000,1,2,0,3,7,255,816,200,157,816
stim,996,996,0,610163.829,0.910,0.067,-0.043,-0.407,1930,0,87,2011,91,973,83,472,1,0.000,3,0,0.759,0.033,0.720,-0.220,-0.100,-0.144,-0.094,0.998,-0.022,-0.024,0.004,0.000,0.000,0.000,0.000,1,2,0,3,7,255,816,200,162,816
stim,996,996,0,610168.829,0.910,0.067,-0.043,-0.407,1941,0,89,2021,86,975,83,470,1,0.000,3,0,0.806,0.045,-0.320,-0.460,-0.580,-0.136,-0.089,0.997,0.038,-0.024,0.068,0.000,0.000,0.000,0.000,1,2,0,3,7,255,816,200,167,816
stim,996,996,0,610173.829,0.910,0.067,-0.043,-0.407,1943,0,86,2035,89,976,85,469,1,0.000,3,0,0.921,0.043,-0.800,-0.220,0.400,-0.131,-0.073,0.982,0.038,-0.020,0.068,0.000,0.000,0.000,0.000,1,2,0,3,7,255,816,200,172,816
stim,997,997,0,610178.829,0.910,0.067,-0.043,-0.407,1928,0,82,2013,74,973,79,464,1,0.000,3,0,1.033,0.041,0.540,0.320,0.820,-0.141,-0.079,0.981,-0.038,-0.016,-0.080,0.000,0.000,0.000,0.000,1,2,0,3,7,255,816,200,177,816
stim,997,997,0,610183.829,0.910,0.067,-0.043,-0.407,1935,0,83,2027,85,976,87,477,1,0.000,3,0,1.179,0.041,0.900,-0.040,-0.760,-0.138,-0.094,1.002,-0.038,-0.016,-0.080,0.000,0.000,0.000,0.000,1,2,0,3,7,255,816,200,182,816
stim,1027,1027,0,610188.829,0.910,0.067,-0.043,-0.407,1941,0,85,2009,59,974,82,466,1,0.000,3,0,1.220,0.016,-0.980,-0.720,0.100,-0.124,-0.071,0.994,0.004,-0.016,0.008,0.000,0.000,0.000,0.000,1,2,0,3,7,255,816,200,187,816
stim,1027,1027,0,610193.829,0.910,0.067,-0.043,-0.407,1937,2,89,2009,77,979,85,471,1,0.000,3,0,1.868,0.013,0.000,0.500,1.800,-0.141,-0.072,0.973,0.004,0.012,0.008,0.000,0.000,0.000,0.000,1,2,0,3,7,255,816,200,192,816
stim,1027,1027,0,610198.829,0.910,0.067,-0.043,-0.407,1935,0,85,2027,77,979,80,476,1,0.000,3,0,1.959,0.013,1.100,0.440,-1.560,-0.150,-0.109,1.004,0.004,0.012,0.008,0.000,0.000,0.000,0.000,1,2,0,3,7,255,816,200,197,816
stim,1027,1027,0,610203.829,0.910,0.067,-0.043,-0.407,1939,0,85,2027,61,985,84,471,1,0.000,3,0,1.870,0.048,-1.280,-1.260,-0.520,-0.114,-0.068,0.994,0.046,0.012,-0.002,0.000,0.000,0.000,0.000,1,2,0,3,7,255,816,200,202,816
stim,1027,1027,0,610208.829,0.910,0.067,-0.043,-0.407,1935,0,85,2023,77,981,79,468,1,0.000,3,0,2.959,0.061,0.600,1.000,2.720,-0.143,-0.064,0.967,0.046,0.040,-0.002,0.000,0.000,0.000,0.000,1,2,0,3,7,255,816,200,207,816
stim,1027,1027,0,610213.829,0.910,0.067,-0.043,-0.407,1933,0,87,2017,74,973,79,471,1,0.000,3,0,2.571,0.061,0.240,0.320,-2.540,-0.148,-0.120,1.017,0.046,0.040,-0.002,0.000,0.000,0.000,0.000,1,2,0,3,7,255,816,200,212,816
stim,1027,1027,0,610218.829,0.910,0.067,-0.043,-0.407,1933,0,87,2010,71,979,85,469,1,0.000,3,0,2.528,0.130,-1.220,-1.820,1.260,-0.116,-0.048,0.979,-0.124,0.040,-0.162,0.000,0.000,0.000,0.000,1,2,0,3,7,255,816,200,217,816
stim,1072,1072,0,610223.829,0.910,0.067,-0.043,-0.407,1947,0,89,2015,75,979,82,468,1,0.000,3,0,2.882,0.232,1.580,2.340,0.580,-0.153,-0.098,0.978,0.004,-0.232,-0.082,0.000,0.000,0.000,0.000,1,2,0,3,7,255,816,200,222,816
stim,1072,1072,0,610228.830,0.910,0.067,-0.043,-0.407,1933,0,88,2023,67,983,85,467,1,0.000,3,0,2.972,0.094,-1.840,-1.620,-1.680,-0.125,-0.088,1.018,0.004,0.094,-0.082,0.000,0.000,0.000,0.000,1,2,0,3,7,255,816,200,227,816
stim,1072,1072,0,610233.829,0.910,0.067,-0.043,-0.407,1931,0,87,2007,72,979,77,471,1,0.000,3,0,2.809,0.072,1.580,0.320,2.300,-0.139,-0.062,0.959,0.004,0.072,-0.082,0.000,0.000,0.000,0.000,1,2,0,3,7,255,816,200,232,816
stim,1072,1072,0,610238.829,0.910,0.067,-0.043,-0.407,1945,0,91,2012,63,981,77,477,1,0.000,3,0,3.013,0.147,-1.660,1.060,-2.280,-0.138,-0.111,1.013,0.128,0.072,0.250,0.000,0.000,0.000,0.000,1,2,0,3,7,255,816,200,237,816
stim,1072,1072,0,610243.829,0.910,0.067,-0.043,-0.407,1928,0,88,2006,77,979,81,467,1,0.000,3,0,3.259,0.190,1.340,-1.880,2.300,-0.131,-0.050,0.977,-0.176,0.072,-0.160,0.000,0.000,0.000,0.000,1,2,0,3,7,255,816,200,242,816
stim,1072,1072,0,610248.829,0.910,0.067,-0.043,-0.407,1947,0,87,2019,75,984,81,475,1,0.000,3,0,3.461,0.246,-1.540,2.280,-2.100,-0.142,-0.114,0.993,0.194,-0.152,0.060,0.000,0.000,0.000,0.000,1,2,0,3,7,255,816,200,247,816
stim,1096,1096,0,610253.829,0.910,0.067,-0.043,-0.407,1928,0,89,2007,77,979,83,471,1,0.000,3,0,3.284,0.296,1.460,-2.060,2.100,-0.130,-0.051,0.994,-0.186,0.230,0.000,0.000,0.000,0.000,0.000,1,2,0,3,7,255,816,200,252,816
stim,1096,1096,0,610258.829,0.910,0.067,-0.043,-0.407,1935,0,87,2011,75,983,77,473,1,0.000,3,0,3.061,0.266,-1.780,1.720,-1.800,-0.142,-0.109,0.984,0.160,-0.212,0.000,0.000,0.000,0.000,0.000,1,2,0,3,7,255,816,200,257,816
stim,1097,1097,0,610263.829,0.910,0.067,-0.043,-0.407,1943,0,87,2013,85,983,82,469,1,0.000,3,0,2.648,0.227,1.700,-1.140,1.680,-0.131,-0.061,0.996,-0.124,0.190,0.000,0.000,0.000,0.000,0.000,1,2,0,3,7,255,816,200,262,816
stim,1097,1097,0,610268.829,0.910,0.067,-0.043,-0.407,1947,0,90,2023,75,982,79,471,1,0.000,3,0,2.335,0.134,-1.840,0.820,-1.180,-0.140,-0.096,0.986,0.074,-0.112,-0.020,0.000,0.000,0.000,0.000,1,2,0,3,7,255,816,200,267,816
stim,1097,1097,0,610273.829,0.910,0.067,-0.043,-0.407,1949,2,87,2020,83,983,85,469,1,0.000,3,0,1.590,0.053,1.400,-0.280,0.700,-0.132,-0.081,0.991,0.022,0.048,0.004,0.000,0.000,0.000,0.000,1,2,0,3,7,255,816,200,272,816
stim,1097,1097,0,610278.829,0.910,0.067,-0.043,-0.407,1940,0,86,2037,77,975,77,475,1,0.000,3,0,1.048,0.053,-1.040,0.080,0.100,-0.137,-0.069,0.990,0.022,0.048,-0.010,0.000,0.000,0.000,0.000,1,2,0,3,7,255,816,200,277,816
stim,1103,1103,0,610283.829,0.910,0.067,-0.043,-0.407,1938,0,87,2018,76,985,77,468,1,0.000,3,0,0.691,0.053,0.000,0.260,-0.640,-0.136,-0.108,0.989,0.022,0.048,0.004,0.000,0.000,0.000,0.000,1,2,0,3,7,255,816,200,282,816
stim,1103,1103,0,610288.829,0.910,0.067,-0.043,-0.407,1935,0,87,2011,83,975,83,471,1,0.000,3,0,1.359,0.133,0.540,-0.340,1.200,-0.134,-0.052,0.989,-0.098,0.090,-0.010,0.000,0.000,0.000,0.000,1,2,0,3,7,255,816,200,287,816
stim,1119,1119,0,610293.829,0.910,0.067,-0.043,-0.407,1933,0,91,2014,72,983,79,475,1,0.000,3,0,1.389,0.196,-0.980,0.440,-0.880,-0.140,-0.103,0.992,0.126,-0.150,0.008,0.000,0.000,0.000,0.000,1,2,0,3,7,255,816,200,292,816
stim,1119,1119,0,610298.829,0.910,0.067,-0.043,-0.407,1949,0,86,2021,71,976,77,472,1,0.000,3,0,0.869,0.039,0.720,-0.160,0.460,-0.135,-0.079,0.987,-0.014,0.036,-0.036,0.000,0.000,0.000,0.000,1,2,0,3,7,255,816,200,297,816
stim,1135,1135,0,610303.829,0.910,0.067,-0.043,-0.407,1941,0,85,2021,75,981,77,471,1,0.000,3,0,0.524,0.039,-0.060,0.020,0.520,-0.136,-0.065,0.992,-0.014,0.036,0.006,0.000,0.000,0.000,0.000,1,2,0,3,7,255,816,200,302,816
stim,1135,1135,0,610308.829,0.910,0.067,-0.043,-0.407,1939,0,97,2035,75,977,81,471,1,0.000,3,0,0.874,0.039,-0.560,0.200,-0.640,-0.139,-0.105,0.992,-0.014,0.036,0.006,0.000,0.000,0.000,0.000,1,2,0,3,7,255,816,200,307,816
stim,1135,1135,0,610313.829,0.910,0.067,-0.043,-0.407,1935,0,84,2013,74,974,80,473,1,0.000,3,0,0.593,0.095,0.360,-0.100,0.460,-0.133,-0.073,0.985,-0.048,0.082,0.006,0.000,0.000,0.000,0.000,1,2,0,3,7,255,816,200,312,816
stim,1135,1135,0,610318.829,0.910,0.067,-0.043,-0.407,1949,0,85,2023,76,981,79,473,1,0.000,3,0,0.476,0.074,0.120,0.020,0.460,-0.138,-0.073,0.992,-0.048,0.056,0.014,0.000,0.000,0.000,0.000,1,2,0,3,7,255,816,200,317,816
stim,1167,1167,0,610323.829,0.910,0.067,-0.043,-0.407,1947,0,85,2025,73,983,81,472,1,0.000,3,0,0.602,0.074,-0.380,0.080,-0.460,-0.139,-0.098,0.994,-0.048,0.056,0.014,0.000,0.000,0.000,0.000,1,2,0,3,7,255,816,200,322,816
stim,1167,1167,0,610328.830,0.910,0.067,-0.043,-0.407,1961,0,88,2019,72,975,84,469,1,0.000,3,0,0.133,0.040,-0.120,-0.040,0.040,-0.133,-0.079,0.984,0.000,0.040,0.014,0.000,0.000,0.000,0.000,1,2,0,3,7,255,816,200,327,816
stim,1183,1183,0,610333.829,0.910,0.067,-0.043,-0.407,1947,0,85,2024,74,987,83,473,1,0.000,3,0,0.817,0.040,0.420,0.020,0.700,-0.135,-0.070,0.990,0.000,0.040,-0.010,0.000,0.000,0.000,0.000,1,2,0,3,7,255,816,200,332,816
stim,1183,1183,0,610338.829,0.910,0.067,-0.043,-0.407,1939,0,87,2025,77,984,87,473,1,0.000,3,0,0.128,0.040,-0.120,0.020,0.040,-0.141,-0.087,0.996,0.000,0.040,-0.010,0.000,0.000,0.000,0.000,1,2,0,3,7,255,816,200,337,816
stim,1183,1183,0,610343.829,0.910,0.067,-0.043,-0.407,1943,0,87,2015,63,985,81,470,1,0.000,3,0,0.815,0.037,-0.740,-0.040,-0.340,-0.135,-0.090,0.989,0.014,-0.034,-0.008,0.000,0.000,0.000,0.000,1,2,0,3,7,255,816,200,342,816
stim,1183,1183,0,610348.829,0.910,0.067,-0.043,-0.407,1944,0,84,2017,75,983,85,469,1,0.000,3,0,0.439,0.037,0.180,0.020,0.400,-0.132,-0.076,0.983,0.014,-0.034,-0.008,0.000,0.000,0.000,0.000,1,2,0,3,7,255,816,200,347,816
stim,1183,1183,0,610353.829,0.910,0.067,-0.043,-0.407,1939,0,89,2012,73,979,81,473,1,0.000,3,0,0.835,0.026,0.600,0.020,0.580,-0.139,-0.077,0.992,-0.016,0.020,-0.008,0.000,0.000,0.000,0.000,1,2,0,3,7,255,816,200,352,816
stim,1183,1183,0,610358.829,0.910,0.067,-0.043,-0.407,1947,0,89,2024,73,983,81,473,1,0.000,3,0,0.338,0.026,-0.320,-0.040,-0.100,-0.140,-0.085,0.997,-0.016,0.020,0.020,0.000,0.000,0.000,0.000,1,2,0,3,7,255,816,200,357,816
stim,1183,1183,0,610363.829,0.910,0.067,-0.043,-0.407,1947,0,89,2017,81,982,84,470,1,0.000,3,0,0.876,0.010,-0.860,-0.040,-0.160,-0.134,-0.086,0.987,0.008,-0.006,0.020,0.000,0.000,0.000,0.000,1,2,0,3,7,255,816,200,362,816
stim,1183,1183,0,610368.829,0.910,0.067,-0.043,-0.407,1935,0,91,2015,76,983,85,477,1,0.000,3,0,0.420,0.025,0.120,-0.040,0.400,-0.133,-0.082,0.983,0.024,-0.006,-0.032,0.000,0.000,0.000,0.000,1,2,0,3,7,255,816,200,367,816
stim,1199,1199,0,610373.829,0.910,0.067,-0.043,-0.407,1961,0,84,2023,75,983,78,471,1,0.000,3,0,0.877,0.031,0.780,-0.040,0.400,-0.139,-0.077,0.992,0.024,0.020,-0.032,0.000,0.000,0.000,0.000,1,2,0,3,7,255,816,200,372,816
stim,1199,1199,0,610378.829,0.910,0.067,-0.043,-0.407,1943,0,89,2014,75,983,85,472,1,0.000,3,0,0.118,0.043,0.060,-0.100,-0.020,-0.139,-0.078,0.998,-0.038,0.020,0.020,0.000,0.000,0.000,0.000,1,2,0,3,7,255,816,200,377,816
stim,1199,1199,0,610383.829,0.910,0.067,-0.043,-0.407,1939,0,85,2016,73,978,77,477,1,0.000,3,0,0.866,0.043,-0.860,-0.100,-0.020,-0.132,-0.086,0.990,-0.038,0.020,0.020,0.000,0.000,0.000,0.000,1,2,0,3,7,255,816,200,382,816
stim,1199,1199,0,610388.829,0.910,0.067,-0.043,-0.407,1945,0,84,2015,75,977,81,470,1,0.000,3,0,0.735,0.053,-0.440,-0.100,0.580,-0.134,-0.087,0.981,0.052,0.008,-0.006,0.000,0.000,0.000,0.000,1,2,0,3,7,255,816,200,387,816
stim,1215,1215,0,610393.829,0.910,0.067,-0.043,-0.407,1936,0,89,2013,81,983,81,473,1,0.000,3,0,0.739,0.053,0.600,-0.160,0.400,-0.139,-0.080,0.985,0.052,-0.010,-0.048,0.000,0.000,0.000,0.000,1,2,0,3,7,255,816,200,392,816
stim,1215,1215,0,610398.829,0.910,0.067,-0.043,-0.407,1947,1,85,2025,77,979,84,471,1,0.000,3,0,0.744,0.032,0.660,-0.040,-0.340,-0.138,-0.076,0.996,-0.030,-0.010,-0.048,0.000,0.000,0.000,0.000,1,2,0,3,7,255,816,200,397,816
stim,1232,1232,0,610403.829,0.910,0.067,-0.043,-0.407,1948,0,91,2022,77,977,86,464,1,0.000,3,0,0.477,0.048,-0.120,-0.040,-0.460,-0.132,-0.082,0.997,-0.030,0.038,0.056,0.000,0.000,0.000,0.000,1,2,0,3,7,255,816,200,402,816
stim,1232,1232,0,610408.829,0.910,0.067,-0.043,-0.407,1935,0,89,2014,75,976,84,473,1,0.000,3,0,0.966,0.052,-0.740,-0.220,0.580,-0.130,-0.088,0.988,0.036,0.038,0.056,0.000,0.000,0.000,0.000,1,2,0,3,7,255,816,200,407,816
stim,1232,1232,0,610413.829,0.910,0.067,-0.043,-0.407,1938,0,91,2012,81,983,84,473,1,0.000,3,0,1.313,0.036,-0.240,-0.280,1.260,-0.140,-0.083,0.984,0.036,0.006,-0.020,0.000,0.000,0.000,0.000,1,2,0,3,7,255,816,200,412,816
stim,1232,1232,0,610418.829,0.910,0.067,-0.044,-0.407,1941,0,88,2013,75,984,79,471,1,0.000,3,0,0.578,0.037,0.480,-0.160,0.280,-0.145,-0.078,0.987,-0.008,-0.036,-0.020,0.000,0.000,0.000,0.000,1,2,0,3,7,255,816,200,417,816
stim,1263,1263,0,610423.829,0.910,0.067,-0.044,-0.407,1942,0,91,2011,78,979,87,473,1,0.000,3,0,1.116,0.054,0.600,-0.040,-0.940,-0.138,-0.077,0.994,-0.040,-0.036,-0.018,0.000,0.000,0.000,0.000,1,2,0,3,7,255,816,200,422,816
stim,1263,1263,0,610428.829,0.910,0.067,-0.043,-0.407,1945,0,87,2017,75,979,80,470,1,0.000,3,0,0.769,0.049,0.060,-0.100,-0.760,-0.127,-0.082,0.994,-0.040,0.028,0.028,0.000,0.000,0.000,0.000,1,2,0,3,7,255,816,200,427,816
stim,1263,1263,0,610433.829,0.910,0.067,-0.043,-0.407,1945,0,86,2023,73,989,78,477,1,0.000,3,0,0.793,0.073,-0.440,-0.160,0.640,-0.128,-0.086,0.990,0.066,0.032,0.028,0.000,0.000,0.000,0.000,1,2,0,3,7,255,816,200,432,816
stim,1263,1263,0,610438.829,0.910,0.067,-0.043,-0.407,1936,0,90,2016,71,981,87,473,1,0.000,3,0,1.434,0.073,-0.320,-0.220,1.380,-0.140,-0.083,0.986,0.066,0.032,-0.004,0.000,0.000,0.000,0.000,1,2,0,3,7,255,816,200,437,816
stim,1263,1263,0,610443.829,0.910,0.067,-0.044,-0.407,1945,0,85,2024,78,983,83,473,1,0.000,3,0,0.502,0.036,0.120,-0.160,0.460,-0.145,-0.079,0.987,-0.006,-0.036,-0.018,0.000,0.000,0.000,0.000,1,2,0,3,7,255,816,200,442,816
stim,1263,1263,0,610448.829,0.910,0.067,-0.044,-0.407,1943,0,88,2014,81,983,87,469,1,0.000,3,0,0.822,0.044,0.420,-0.100,-0.700,-0.139,-0.080,0.989,-0.026,-0.036,-0.018,0.000,0.000,0.000,0.000,1,2,0,3,7,255,816,200,447,816
stim,1295,1295,0,610453.829,0.910,0.067,-0.044,-0.407,1939,0,85,2021,74,981,79,473,1,0.000,3,0,0.581,0.026,0.240,-0.100,-0.520,-0.131,-0.083,0.993,-0.026,0.002,-0.006,0.000,0.000,0.000,0.000,1,2,0,3,7,255,816,200,452,816
stim,1295,1295,0,610458.829,0.910,0.067,-0.044,-0.407,1940,0,85,2027,69,978,78,471,1,0.000,3,0,0.429,0.065,-0.120,-0.100,0.400,-0.130,-0.083,0.992,0.050,0.042,0.010,0.000,0.000,0.000,0.000,1,2,0,3,7,255,816,200,457,816
stim,1295,1295,0,610463.829,0.910,0.067,-0.044,-0.407,1941,0,84,2015,75,984,86,475,1,0.000,3,0,0.895,0.065,-0.320,-0.160,0.820,-0.138,-0.081,0.990,0.050,0.042,0.010,0.000,0.000,0.000,0.000,1,2,0,3,7,255,816,200,462,816
stim,1295,1295,0,610468.829,0.910,0.067,-0.044,-0.407,1947,0,85,2025,75,985,83,473,1,0.000,3,0,0.303,0.012,-0.060,-0.100,0.280,-0.141,-0.081,0.988,-0.012,-0.002,0.004,0.000,0.000,0.000,0.000,1,2,0,3,7,255,816,200,467,816
stim,1295,1295,0,610473.829,0.910,0.067,-0.044,-0.407,1945,0,85,2021,81,980,85,469,1,0.000,3,0,0.464,0.016,0.300,-0.100,-0.340,-0.138,-0.083,0.989,-0.012,-0.010,-0.006,0.000,0.000,0.000,0.000,1,2,0,3,7,255,816,200,472,816
stim,1295,1295,0,610478.829,0.910,0.067,-0.044,-0.407,1941,0,89,2020,79,984,85,475,1,0.000,3,0,0.382,0.010,0.240,-0.100,-0.280,-0.133,-0.083,0.991,0.002,-0.010,-0.006,0.000,0.000,0.000,0.000,1,2,0,3,7,255,816,200,477,816
stim,1311,1311,0,610483.829,0.910,0.067,-0.044,-0.407,1939,0,89,2020,78,981,85,471,1,0.000,3,0,0.232,0.034,0.060,-0.040,0.220,-0.133,-0.081,0.991,0.022,0.026,0.004,0.000,0.000,0.000,0.000,1,2,0,3,7,255,816,200,482,816
stim,1311,1311,0,610488.829,0.910,0.067,-0.044,-0.407,1938,0,87,2019,73,985,81,475,1,0.000,3,0,0.533,0.034,-0.060,-0.100,0.520,-0.137,-0.081,0.992,0.022,0.026,0.006,0.000,0.000,0.000,0.000,1,2,0,3,7,255,816,200,487,816
stim,1311,1311,0,610493.829,0.910,0.067,-0.044,-0.407,1947,0,88,2021,79,981,79,474,1,0.000,3,0,0.289,0.010,-0.060,-0.040,0.280,-0.137,-0.082,0.989,-0.002,0.010,0.006,0.000,0.000,0.000,0.000,1,2,0,3,7,255,816,200,492,816
stim,1311,1311,0,610498.829,0.910,0.067,-0.044,-0.407,1940,0,89,2013,76,981,84,471,1,0.000,3,0,0.133,0.003,0.120,-0.040,0.040,-0.138,-0.083,0.989,-0.002,-0.002,-0.010,0.000,0.000,0.000,0.000,1,2,0,3,7,255,816,200,497,816
stim,1327,1327,0,610503.829,0.910,0.067,-0.044,-0.407,1944,0,87,2013,75,981,83,481,1,0.000,3,0,0.189,0.003,0.180,-0.040,0.040,-0.136,-0.082,0.990,0.002,-0.002,-0.010,0.000,0.000,0.000,0.000,1,2,0,3,7,255,816,200,502,816
stim,1327,1327,0,610508.829,0.910,0.067,-0.044,-0.407,1947,0,83,2033,76,981,81,470,1,0.000,3,0,0.301,0.013,0.180,-0.100,0.220,-0.135,-0.082,0.990,0.010,0.008,0.000,0.000,0.000,0.000,0.000,1,2,0,3,7,255,816,200,507,816
stim,1377,1377,0,610513.829,0.910,0.067,-0.044,-0.407,1935,0,87,2021,76,985,77,475,1,0.000,3,0,0.348,0.013,-0.060,-0.040,0.340,-0.136,-0.082,0.992,0.010,0.008,0.002,0.000,0.000,0.000,0.000,1,2,0,3,7,255,816,200,512,816
stim,1377,1377,0,610518.829,0.910,0.067,-0.044,-0.407,1940,0,86,2013,75,984,82,469,1,0.000,3,0,0.303,0.010,-0.060,-0.100,0.280,-0.137,-0.081,0.990,0.006,0.008,0.002,0.000,0.000,0.000,0.000,1,2,0,3,7,255,816,200,517,816
stim,1377,1377,0,610523.829,0.910,0.067,-0.044,-0.407,1941,0,84,2015,78,980,79,472,1,0.000,3,0,0.161,0.006,0.000,0.020,0.160,-0.137,-0.082,0.990,0.004,0.004,0.002,0.000,0.000,0.000,0.000,1,2,0,3,7,255,816,200,522,816
stim,1377,1377,0,610528.830,0.910,0.067,-0.044,-0.407,1941,0,85,2010,72,983,77,464,1,0.000,3,0,0.244,0.006,0.180,-0.040,0.160,-0.136,-0.083,0.990,0.004,0.004,0.002,0.000,0.000,0.000,0.000,1,2,0,3,7,255,816,200,527,816
stim,1377,1377,0,610533.829,0.910,0.067,-0.044,-0.407,1949,0,85,2039,83,983,75,471,1,0.000,3,0,0.232,0.008,0.060,-0.040,0.220,-0.136,-0.082,0.992,0.006,0.006,0.002,0.000,0.000,0.000,0.000,1,2,0,3,7,255,816,200,532,816
stim,1377,1377,0,610538.829,0.910,0.067,-0.044,-0.407,1938,0,84,2010,71,979,77,471,1,0.000,3,0,0.221,0.013,0.000,0.020,0.220,-0.136,-0.081,0.991,0.006,0.012,0.010,0.000,0.000,0.000,0.000,1,2,0,3,7,255,816,200,537,816
stim,1377,1377,0,610543.829,0.910,0.067,-0.044,-0.407,1945,0,88,2022,81,983,85,473,1,0.000,3,0,0.242,0.013,0.000,-0.100,0.220,-0.136,-0.082,0.989,0.006,0.012,0.010,0.000,0.000,0.000,0.000,1,2,0,3,7,255,816,200,542,816
stim,1377,1377,0,610548.829,0.910,0.067,-0.044,-0.407,1939,0,82,2010,80,983,78,467,1,0.000,3,0,0.226,0.012,0.000,-0.160,0.160,-0.136,-0.082,0.990,0.006,0.010,-0.004,0.000,0.000,0.000,0.000,1,2,0,3,7,255,816,200,547,816
stim,1377,1377,0,610553.829,0.910,0.067,-0.044,-0.407,1961,0,87,2024,77,984,83,475,1,0.000,3,0,0.224,0.012,0.120,-0.100,0.160,-0.135,-0.083,0.990,0.006,0.010,-0.004,0.000,0.000,0.000,0.000,1,2,0,3,7,255,816,200,552,816
stim,1379,1379,0,610558.829,0.910,0.067,-0.044,-0.407,1935,0,86,2017,80,981,77,468,1,0.000,3,0,0.224,0.014,0.120,-0.100,0.160,-0.136,-0.083,0.990,0.012,0.008,-0.004,0.000,0.000,0.000,0.000,1,2,0,3,7,255,816,200,557,816
stim,1379,1379,0,610563.829,0.910,0.067,-0.044,-0.407,1938,0,83,2011,79,979,79,471,1,0.000,3,0,0.198,0.014,0.060,-0.100,0.160,-0.135,-0.082,0.992,0.012,0.008,0.000,0.000,0.000,0.000,0.000,1,2,0,3,7,255,816,200,562,816
stim,1381,1381,0,610568.829,0.910,0.067,-0.044,-0.407,1941,0,85,2012,81,980,77,469,1,0.000,3,0,0.249,0.016,0.060,-0.100,0.220,-0.135,-0.082,0.990,0.008,0.014,0.000,0.000,0.000,0.000,0.000,1,2,0,3,7,255,816,200,567,816
stim,1381,1381,0,610573.829,0.910,0.067,-0.044,-0.407,1953,0,83,2027,76,983,77,475,1,0.000,3,0,0.204,0.016,0.120,-0.040,0.160,-0.136,-0.083,0.990,0.008,0.014,0.002,0.000,0.000,0.000,0.000,1,2,0,3,7,255,816,200,572,816
stim,1393,1393,0,610578.829,0.910,0.067,-0.044,-0.407,1939,0,83,2011,77,977,78,469,1,0.000,3,0,0.204,0.013,0.120,-0.040,0.160,-0.136,-0.082,0.990,0.008,0.010,0.000,0.000,0.000,0.000,0.000,1,2,0,3,7,255,816,200,577,816
stim,1393,1393,0,610583.829,0.910,0.067,-0.044,-0.407,1945,0,87,2019,78,983,86,475,1,0.000,3,0,0.204,0.014,0.120,-0.040,0.160,-0.135,-0.082,0.990,0.010,0.010,-0.004,0.000,0.000,0.000,0.000,1,2,0,3,7,255,816,200,582,816
stim,1407,1407,0,610588.829,0.910,0.067,-0.043,-0.407,1939,0,86,2012,79,979,79,468,1,0.000,3,0,0.172,0.011,0.060,0.020,0.160,-0.136,-0.082,0.990,0.004,0.010,-0.004,0.000,0.000,0.000,0.000,1,2,0,3,7,255,816,200,587,816
stim,1407,1407,0,610593.829,0.910,0.067,-0.044,-0.407,1954,0,85,2027,80,985,85,471,1,0.000,3,0,0.172,0.013,0.060,0.020,0.160,-0.136,-0.081,0.989,0.004,0.012,-0.004,0.000,0.000,0.000,0.000,1,2,0,3,7,255,816,200,592,816
stim,1425,1425,0,610598.829,0.910,0.067,-0.043,-0.407,1943,0,83,2021,75,983,78,471,1,0.000,3,0,0.133,0.013,0.120,-0.040,0.040,-0.136,-0.082,0.990,0.004,0.012,0.000,0.000,0.000,0.000,0.000,1,2,0,3,7,255,816,200,597,816
stim,1425,1425,0,610603.829,0.910,0.067,-0.043,-0.407,1941,0,87,2021,77,981,95,475,1,0.000,3,0,0.118,0.004,0.060,0.020,0.100,-0.138,-0.082,0.990,0.000,0.004,-0.002,0.000,0.000,0.000,0.000,1,2,0,3,7,255,816,200,602,816
stim,1425,1425,0,610608.829,0.910,0.067,-0.044,-0.407,1951,0,87,2023,75,987,81,473,1,0.000,3,0,0.123,0.004,0.060,-0.040,0.100,-0.136,-0.081,0.991,0.000,0.004,0.002,0.000,0.000,0.000,0.000,1,2,0,3,7,255,816,200,607,816
stim,1425,1425,0,610613.829,0.910,0.067,-0.043,-0.407,1948,0,79,2040,77,982,79,475,1,0.000,3,0,0.128,0.010,0.000,0.080,0.100,-0.136,-0.082,0.990,0.000,0.010,0.000,0.000,0.000,0.000,0.000,1,2,0,3,7,255,816,200,612,816
stim,1462,1462,0,610618.829,0.910,0.067,-0.044,-0.407,1963,1,87,2025,75,985,83,477,1,0.000,3,0,0.066,0.010,0.060,0.020,-0.020,-0.136,-0.081,0.991,0.000,0.010,0.004,0.000,0.000,0.000,0.000,1,2,0,3,7,255,816,200,617,816
stim,1462,1462,0,610623.829,0.910,0.067,-0.044,-0.407,1951,0,83,2023,73,985,81,472,1,0.000,3,0,0.123,0.011,0.120,0.020,-0.020,-0.135,-0.081,0.990,0.004,0.010,0.000,0.000,0.000,0.000,0.000,1,2,0,3,7,255,816,200,622,816
stim,1462,1462,0,610628.829,0.910,0.067,-0.044,-0.407,1953,0,88,2025,74,983,83,475,1,0.000,3,0,0.075,0.011,0.060,0.020,0.040,-0.136,-0.082,0.989,0.004,0.010,-0.006,0.000,0.000,0.000,0.000,1,2,0,3,7,255,816,200,627,816
stim,1462,1462,0,610633.829,0.910,0.067,-0.044,-0.407,1947,0,88,2027,77,983,85,475,1,0.000,3,0,0.165,0.011,0.000,-0.040,0.160,-0.135,-0.083,0.990,0.008,0.008,-0.006,0.000,0.000,0.000,0.000,1,2,0,3,7,255,816,200,632,816
stim,1462,1462,0,610638.829,0.910,0.067,-0.044,-0.407,1946,0,85,2023,75,987,84,474,1,0.000,3,0,0.161,0.009,0.000,0.020,0.160,-0.136,-0.080,0.990,0.004,0.008,-0.006,0.000,0.000,0.000,0.000,1,2,0,3,7,255,816,200,637,816
stim,1462,1462,0,610643.829,0.910,0.067,-0.044,-0.407,1949,0,83,2023,71,979,79,471,1,0.000,3,0,0.045,0.006,0.000,0.020,0.040,-0.136,-0.081,0.989,-0.002,0.006,-0.006,0.000,0.000,0.000,0.000,1,2,0,3,7,255,816,200,642,816
stim,1493,1493,0,610648.829,0.910,0.067,-0.044,-0.407,1951,0,82,2041,72,987,81,473,1,0.000,3,0,0.075,0.008,0.060,-0.040,-0.020,-0.136,-0.082,0.989,-0.002,0.008,-0.008,0.000,0.000,0.000,0.000,1,2,0,3,7,255,816,200,647,816
stim,1493,1493,0,610653.829,0.910,0.067,-0.044,-0.407,1955,0,85,2029,82,982,83,475,1,0.000,3,0,0.045,0.009,0.000,0.020,0.040,-0.135,-0.082,0.992,0.004,0.008,-0.008,0.000,0.000,0.000,0.000,1,2,0,3,7,255,816,200,652,816
stim,1493,1493,0,610658.829,0.910,0.067,-0.043,-0.407,1944,0,85,2026,83,983,81,471,1,0.000,3,0,0.118,0.013,-0.060,0.020,0.100,-0.135,-0.082,0.990,0.006,0.012,-0.004,0.000,0.000,0.000,0.000,1,2,0,3,7,255,816,200,657,816
stim,1493,1493,0,610663.829,0.910,0.067,-0.044,-0.407,1947,0,78,2011,80,976,78,471,1,0.000,3,0,0.157,0.013,-0.120,0.020,0.100,-0.137,-0.080,0.991,0.006,0.012,0.006,0.000,0.000,0.000,0.000,1,2,0,3,7,255,816,200,662,816
stim,1493,1493,0,610668.829,0.910,0.067,-0.044,-0.406,1948,0,85,2021,82,987,83,476,1,0.000,3,0,0.113,0.013,0.000,0.080,-0.080,-0.135,-0.081,0.989,0.004,0.012,-0.004,0.000,0.000,0.000,0.000,1,2,0,3,7,255,816,200,667,816
stim,1493,1493,0,610673.829,0.910,0.067,-0.043,-0.406,1942,0,83,2012,77,978,79,471,1,0.000,3,0,0.028,0.015,0.000,0.020,-0.020,-0.134,-0.082,0.991,0.004,0.014,0.004,0.000,0.000,0.000,0.000,1,2,0,3,7,255,816,200,672,816
stim,1493,1493,0,610678.829,0.910,0.067,-0.044,-0.406,1949,0,87,2022,81,983,83,472,1,0.000,3,0,0.028,0.017,0.000,0.020,-0.020,-0.135,-0.081,0.990,0.006,0.016,0.000,0.000,0.000,0.000,0.000,1,2,0,3,7,255,816,200,677,816
stim,1503,1503,0,610683.829,0.910,0.067,-0.044,-0.406,1943,0,83,2015,75,983,83,473,1,0.000,3,0,0.075,0.017,-0.060,-0.040,-0.020,-0.136,-0.082,0.990,0.006,0.016,0.002,0.000,0.000,0.000,0.000,1,2,0,3,7,255,816,200,682,816
stim,1503,1503,0,610688.829,0.910,0.067,-0.044,-0.406,1957,0,87,2027,79,984,86,473,1,0.000,3,0,0.123,0.015,-0.120,0.020,-0.020,-0.135,-0.081,0.990,0.004,0.014,0.000,0.000,0.000,0.000,0.000,1,2,0,3,7,255,816,200,687,816
stim,1530,1530,0,610693.829,0.910,0.067,-0.044,-0.406,1946,0,77,2017,76,981,79,471,1,0.000,3,0,0.128,0.009,-0.120,0.020,0.040,-0.135,-0.082,0.989,0.004,0.008,0.000,0.000,0.000,0.000,0.000,1,2,0,3,7,255,816,200,692,816
stim,1530,1530,0,610698.829,0.910,0.067,-0.043,-0.406,1949,0,83,2023,73,987,85,474,1,0.000,3,0,0.150,0.010,-0.120,0.080,0.040,-0.136,-0.082,0.990,0.006,0.008,-0.004,0.000,0.000,0.000,0.000,1,2,0,3,7,255,816,200,697,816
stim,1530,1530,0,610703.829,0.910,0.067,-0.043,-0.406,1949,0,77,2027,71,982,75,471,1,0.000,3,0,0.157,0.010,-0.120,0.020,0.100,-0.136,-0.082,0.990,0.006,0.008,-0.004,0.000,0.000,0.000,0.000,1,2,0,3,7,255,816,200,702,816
stim,1535,1535,0,610708.829,0.910,0.067,-0.043,-0.406,1949,0,85,2023,73,984,76,475,1,0.000,3,0,0.066,0.009,-0.060,0.020,-0.020,-0.136,-0.082,0.990,0.004,0.008,0.002,0.000,0.000,0.000,0.000,1,2,0,3,7,255,816,200,707,816
stim,1535,1535,0,610713.829,0.910,0.067,-0.043,-0.406,1945,0,85,2014,64,985,75,473,1,0.000,3,0,0.128,0.009,-0.120,-0.040,-0.020,-0.136,-0.082,0.990,0.004,0.008,0.002,0.000,0.000,0.000,0.000,1,2,0,3,7,255,816,200,712,816
stim,1535,1535,1,610718.829,0.910,0.067,-0.043,-0.406,1955,0,85,2025,73,984,78,482,1,0.000,3,0,0.123,0.007,-0.120,0.020,-0.020,-0.136,-0.083,0.990,0.006,0.004,0.002,0.000,0.000,0.000,0.000,1,2,1,3,7,255,816,200,717,816
stim,1567,1567,1,610723.829,0.910,0.067,-0.043,-0.406,1939,0,78,2021,71,980,81,469,1,0.000,3,0,0.128,0.006,-0.120,-0.040,-0.020,-0.137,-0.081,0.990,0.006,0.000,0.002,0.000,0.000,0.000,0.000,1,2,1,3,7,255,816,200,722,816
stim,1567,1567,1,610728.830,0.910,0.067,-0.043,-0.406,1945,0,83,2017,72,980,77,470,1,0.000,3,0,0.128,0.000,-0.120,-0.040,-0.020,-0.136,-0.081,0.990,0.000,0.000,-0.002,0.000,0.000,0.000,0.000,1,2,1,3,7,255,816,200,727,816
stim,1567,1567,1,610733.829,0.910,0.067,-0.044,-0.406,1949,0,81,2021,71,987,83,473,1,0.000,3,0,0.075,0.010,-0.060,-0.040,-0.020,-0.136,-0.081,0.990,0.000,0.010,-0.002,0.000,0.000,0.000,0.000,1,2,1,3,7,255,816,200,732,816
stim,1567,1567,1,610738.829,0.910,0.067,-0.043,-0.406,1957,0,80,2020,72,987,81,475,1,0.000,3,0,0.150,0.010,-0.120,-0.040,-0.080,-0.136,-0.083,0.990,0.000,0.010,-0.002,0.000,0.000,0.000,0.000,1,2,1,3,7,255,816,200,737,816
stim,1567,1567,1,610743.829,0.910,0.067,-0.044,-0.406,1956,0,80,2027,72,987,76,473,1,0.000,3,0,0.108,0.010,-0.060,-0.040,-0.080,-0.136,-0.081,0.991,0.000,0.010,0.000,0.000,0.000,0.000,0.000,1,2,1,3,7,255,816,200,742,816
stim,1567,1567,1,610748.829,0.910,0.067,-0.044,-0.406,1959,0,81,2027,72,987,77,473,1,0.000,3,0,0.133,0.008,-0.120,-0.040,0.040,-0.137,-0.081,0.992,-0.006,0.006,0.010,0.000,0.000,0.000,0.000,1,2,1,3,7,255,816,200,747,816
stim,1583,1583,1,610753.829,0.910,0.067,-0.044,-0.406,1951,0,82,2029,75,983,80,479,1,0.000,3,0,0.330,0.008,-0.320,0.020,-0.080,-0.137,-0.082,0.990,-0.006,0.006,0.010,0.000,0.000,0.000,0.000,1,2,1,3,7,255,816,200,752,816
stim,1583,1583,1,610758.829,0.910,0.067,-0.044,-0.406,1951,0,79,2019,73,981,77,471,1,0.000,3,0,0.513,0.008,-0.320,0.020,-0.400,-0.134,-0.085,0.989,-0.002,-0.008,0.004,0.000,0.000,0.000,0.000,1,2,1,3,7,255,816,200,757,816
stim,1583,1583,1,610763.829,0.910,0.067,-0.044,-0.406,1960,0,84,2023,75,985,84,475,1,0.000,3,0,0.254,0.037,0.240,0.020,-0.080,-0.132,-0.083,0.987,0.036,-0.008,-0.012,0.000,0.000,0.000,0.000,1,2,1,3,7,255,816,200,762,816
stim,1583,1583,1,610768.829,0.910,0.067,-0.044,-0.406,1957,0,83,2025,74,991,83,472,1,0.000,3,0,0.842,0.039,0.360,-0.040,0.760,-0.140,-0.072,0.995,0.036,0.016,-0.012,0.000,0.000,0.000,0.000,1,2,1,3,7,255,816,200,767,816
stim,1599,1599,1,610773.829,0.910,0.067,-0.044,-0.406,1957,0,83,2027,75,985,81,473,1,0.000,3,0,1.275,0.034,-1.100,0.080,-0.640,-0.141,-0.082,0.994,-0.030,0.016,0.040,0.000,0.000,0.000,0.000,1,2,1,3,7,255,816,200,772,816
stim,1599,1599,1,610778.829,0.910,0.067,-0.043,-0.406,1957,0,84,2031,77,986,85,472,1,0.000,3,0,0.711,0.040,-0.120,-0.040,-0.700,-0.128,-0.094,0.984,-0.030,-0.026,0.040,0.000,0.000,0.000,0.000,1,2,1,3,7,255,816,200,777,816
stim,1615,1615,1,610783.829,0.910,0.067,-0.043,-0.406,1952,0,77,2020,71,989,80,473,1,0.000,3,0,1.381,0.040,0.000,-0.040,1.380,-0.134,-0.067,0.988,-0.030,-0.026,-0.038,0.000,0.000,0.000,0.000,1,2,1,3,7,255,816,200,782,816
stim,1615,1615,1,610788.829,0.910,0.067,-0.044,-0.406,1945,0,79,2013,71,981,75,471,1,0.000,3,0,0.727,0.046,-0.180,0.080,-0.700,-0.146,-0.095,0.993,0.036,-0.028,-0.038,0.000,0.000,0.000,0.000,1,2,1,3,7,255,816,200,787,816
stim,1615,1615,1,610793.829,0.910,0.067,-0.044,-0.406,1958,0,81,2036,73,985,83,477,1,0.000,3,0,0.860,0.138,0.720,-0.100,0.460,-0.127,-0.063,0.996,-0.080,0.112,0.026,0.000,0.000,0.000,0.000,1,2,1,3,7,255,816,200,792,816
stim,1615,1615,1,610798.829,0.910,0.067,-0.044,-0.406,1956,0,85,2026,77,989,87,481,1,0.000,3,0,1.970,0.146,-1.780,0.200,-0.820,-0.145,-0.099,0.982,0.036,-0.142,0.026,0.000,0.000,0.000,0.000,1,2,1,3,7,255,816,200,797,816
stim,1631,1631,1,610803.829,0.910,0.067,-0.044,-0.406,1945,0,79,2013,57,981,83,471,1,0.000,3,0,1.019,0.198,0.980,-0.280,-0.020,-0.119,-0.067,1.000,0.010,0.198,0.026,0.000,0.000,0.000,0.000,1,2,1,3,7,255,816,200,802,816
stim,1631,1631,1,610808.829,0.910,0.067,-0.044,-0.406,1951,0,81,2023,77,983,85,475,1,0.000,3,0,1.860,0.144,-0.440,-0.160,1.800,-0.146,-0.089,0.975,0.010,-0.144,-0.048,0.000,0.000,0.000,0.000,1,2,1,3,7,255,816,200,807,816
stim,1663,1663,1,610813.829,0.910,0.067,-0.044,-0.406,1951,0,81,2025,57,987,85,473,1,0.000,3,0,2.307,0.116,-0.620,0.880,-2.040,-0.146,-0.092,1.006,0.010,-0.116,0.056,0.000,0.000,0.000,0.000,1,2,1,3,7,255,816,200,812,816
stim,1663,1663,1,610818.829,0.910,0.067,-0.044,-0.406,1944,0,87,2027,58,991,77,481,1,0.000,3,0,2.573,0.116,1.100,-2.060,1.080,-0.114,-0.053,0.985,-0.010,-0.116,-0.104,0.000,0.000,0.000,0.000,1,2,1,3,7,255,816,200,1,816
stim,1663,1663,1,610823.829,0.910,0.067,-0.044,-0.406,1947,0,79,2025,72,987,76,473,1,0.000,3,0,3.061,0.117,-0.860,2.880,0.580,-0.150,-0.098,0.980,0.016,-0.116,-0.062,0.000,0.000,0.000,0.000,1,2,1,3,7,255,816,200,6,816
stim,1663,1663,1,610828.829,0.910,0.067,-0.044,-0.406,1948,0,77,2025,77,987,73,475,1,0.000,3,0,2.876,0.119,-0.740,-2.300,-1.560,-0.141,-0.101,1.014,0.028,-0.116,-0.062,0.000,0.000,0.000,0.000,1,2,1,3,7,255,816,200,11,816
stim,1663,1663,1,610833.829,0.910,0.067,-0.044,-0.406,1955,0,80,2023,57,985,77,473,1,0.000,3,0,0.991,0.119,0.780,0.320,0.520,-0.128,-0.061,0.969,0.028,-0.116,-0.062,0.000,0.000,0.000,0.000,1,2,1,3,7,255,816,200,16,816
stim,1663,1663,1,610838.829,0.910,0.067,-0.044,-0.406,1948,0,77,2023,59,987,79,473,1,0.000,3,0,1.370,0.111,0.000,0.760,1.140,-0.130,-0.072,0.995,-0.026,0.108,0.030,0.000,0.000,0.000,0.000,1,2,1,3,7,255,816,200,21,816
stim,1679,1679,1,610843.829,0.910,0.067,-0.044,-0.406,1951,0,77,2022,62,991,78,477,1,0.000,3,0,0.795,0.111,-0.560,-0.520,-0.220,-0.142,-0.087,0.992,-0.026,0.108,0.030,0.000,0.000,0.000,0.000,1,2,1,3,7,255,816,200,26,816
stim,1679,1679,1,610848.829,0.910,0.067,-0.044,-0.406,1956,0,77,2027,59,987,76,473,1,0.000,3,0,0.485,0.076,0.060,0.140,-0.460,-0.141,-0.089,0.993,0.008,-0.076,0.030,0.000,0.000,0.000,0.000,1,2,1,3,7,255,816,200,31,816
stim,1679,1679,1,610853.829,0.910,0.067,-0.044,-0.406,1957,0,81,2027,57,987,79,473,1,0.000,3,0,0.446,0.080,0.240,-0.340,-0.160,-0.138,-0.086,0.996,0.026,-0.076,0.042,0.000,0.000,0.000,0.000,1,2,1,3,7,255,816,200,36,816
stim,1679,1679,1,610858.829,0.910,0.067,-0.044,-0.406,1951,0,88,2025,58,984,76,475,1,0.000,3,0,0.323,0.044,-0.320,-0.040,-0.020,-0.134,-0.078,0.987,0.026,-0.036,0.042,0.000,0.000,0.000,0.000,1,2,1,3,7,255,816,200,41,816
stim,1679,1679,1,610863.829,0.910,0.067,-0.044,-0.406,1941,0,75,2013,52,982,76,472,1,0.000,3,0,0.498,0.036,-0.440,0.080,0.220,-0.132,-0.073,0.986,-0.006,0.036,-0.038,0.000,0.000,0.000,0.000,1,2,1,3,7,255,816,200,46,816
stim,1679,1679,1,610868.829,0.910,0.067,-0.044,-0.406,1943,0,74,2019,57,991,75,469,1,0.000,3,0,0.369,0.058,-0.120,0.080,0.340,-0.133,-0.076,0.988,-0.016,0.056,-0.038,0.000,0.000,0.000,0.000,1,2,1,3,7,255,816,200,51,816
stim,1695,1695,1,610873.829,0.910,0.067,-0.044,-0.406,1945,0,72,2023,69,983,76,469,1,0.000,3,0,0.342,0.058,0.180,0.080,0.280,-0.136,-0.082,0.991,-0.016,0.056,-0.030,0.000,0.000,0.000,0.000,1,2,1,3,7,255,816,200,56,816
stim,1695,1695,1,610878.829,0.910,0.067,-0.044,-0.406,1947,0,77,2022,69,979,75,475,1,0.000,3,0,0.279,0.006,0.240,-0.100,0.100,-0.139,-0.085,0.992,0.006,-0.002,0.008,0.000,0.000,0.000,0.000,1,2,1,3,7,255,816,200,61,816
stim,1711,1711,1,610883.829,0.910,0.067,-0.044,-0.406,1949,0,75,2023,69,989,87,475,1,0.000,3,0,0.128,0.048,0.120,-0.040,-0.020,-0.139,-0.085,0.991,0.014,-0.046,0.018,0.000,0.000,0.000,0.000,1,2,1,3,7,255,816,200,66,816
stim,1711,1711,1,610888.829,0.910,0.067,-0.044,-0.406,1957,0,79,2025,73,986,85,476,1,0.000,3,0,0.154,0.049,-0.060,-0.100,-0.100,-0.137,-0.085,0.991,0.016,-0.046,0.018,0.000,0.000,0.000,0.000,1,2,1,3,7,255,816,200,71,816
stim,1711,1711,1,610893.829,0.910,0.067,-0.044,-0.406,1946,0,85,2023,75,987,85,475,1,0.000,3,0,0.123,0.038,-0.060,-0.040,-0.100,-0.135,-0.083,0.989,0.020,-0.032,0.012,0.000,0.000,0.000,0.000,1,2,1,3,7,255,816,200,76,816
stim,1711,1711,1,610898.829,0.910,0.067,-0.044,-0.406,1942,0,87,2015,70,989,85,473,1,0.000,3,0,0.082,0.020,-0.060,-0.040,0.040,-0.135,-0.080,0.990,0.020,0.002,-0.002,0.000,0.000,0.000,0.000,1,2,1,3,7,255,816,200,81,816
stim,1727,1727,1,610903.829,0.910,0.067,-0.044,-0.406,1946,0,84,2016,57,993,79,473,1,0.000,3,0,0.210,0.021,-0.180,-0.040,0.100,-0.134,-0.080,0.990,0.010,0.018,-0.008,0.000,0.000,0.000,0.000,1,2,1,3,7,255,816,200,86,816
stim,1727,1727,1,610908.829,0.910,0.066,-0.044,-0.406,1947,0,73,2017,59,983,79,471,1,0.000,3,0,0.161,0.020,-0.120,-0.040,0.100,-0.135,-0.080,0.989,0.004,0.020,-0.008,0.000,0.000,0.000,0.000,1,2,1,3,7,255,816,200,91,816
stim,1743,1743,1,610913.829,0.910,0.066,-0.044,-0.406,1945,0,81,2016,59,991,77,471,1,0.000,3,0,0.161,0.022,-0.120,-0.040,0.100,-0.134,-0.080,0.990,0.008,0.020,-0.008,0.000,0.000,0.000,0.000,1,2,1,3,7,255,816,200,96,816
stim,1743,1743,0,610918.829,0.910,0.066,-0.044,-0.406,1949,0,68,2015,53,988,75,471,1,0.000,3,0,0.161,0.020,-0.120,-0.040,0.100,-0.136,-0.081,0.990,0.002,0.020,-0.006,0.000,0.000,0.000,0.000,1,2,0,3,7,255,816,200,101,816
stim,1775,1775,0,610923.829,0.910,0.066,-0.044,-0.406,1941,0,71,2023,55,983,77,471,1,0.000,3,0,0.108,0.002,0.000,-0.040,0.100,-0.138,-0.082,0.989,0.002,0.000,-0.006,0.000,0.000,0.000,0.000,1,2,0,3,7,255,816,200,106,816
stim,1775,1775,0,610928.830,0.910,0.066,-0.044,-0.406,1954,0,77,2035,53,989,79,479,1,0.000,3,0,0.161,0.010,-0.120,-0.040,0.100,-0.137,-0.082,0.990,0.002,-0.010,0.002,0.000,0.000,0.000,0.000,1,2,0,3,7,255,816,200,111,816
stim,1775,1775,0,610933.829,0.910,0.067,-0.044,-0.406,1951,0,83,2033,55,989,85,474,1,0.000,3,0,0.123,0.012,-0.060,-0.040,0.100,-0.136,-0.082,0.990,0.006,-0.010,0.002,0.000,0.000,0.000,0.000,1,2,0,3,7,255,816,200,116,816
stim,1775,1775,0,610938.829,0.910,0.067,-0.044,-0.406,1943,0,85,2029,57,997,75,474,1,0.000,3,0,0.082,0.008,-0.060,-0.040,0.040,-0.136,-0.083,0.992,0.008,-0.002,0.004,0.000,0.000,0.000,0.000,1,2,0,3,7,255,816,200,121,816
stim,1775,1775,0,610943.829,0.910,0.066,-0.044,-0.406,1957,0,86,2027,69,985,81,475,1,0.000,3,0,0.075,0.008,-0.060,0.020,0.040,-0.134,-0.080,0.990,0.008,0.000,0.002,0.000,0.000,0.000,0.000,1,2,0,3,7,255,816,200,126,816
stim,1775,1775,0,610948.829,0.910,0.066,-0.044,-0.406,1957,0,84,2020,69,990,77,471,1,0.000,3,0,0.066,0.018,-0.060,0.020,-0.020,-0.134,-0.082,0.989,0.016,0.008,-0.002,0.000,0.000,0.000,0.000,1,2,0,3,7,255,816,200,131,816
stim,1775,1775,0,610953.829,0.910,0.066,-0.044,-0.406,1946,0,80,2035,75,989,81,484,1,0.000,3,0,0.207,0.022,-0.180,0.020,0.100,-0.133,-0.079,0.989,0.008,0.020,-0.014,0.000,0.000,0.000,0.000,1,2,0,3,7,255,816,200,136,816
stim,1775,1775,0,610958.829,0.910,0.066,-0.044,-0.406,1965,0,85,2034,55,987,75,477,1,0.000,3,0,0.341,0.027,-0.260,0.020,0.220,-0.134,-0.079,0.987,0.006,0.026,-0.014,0.000,0.000,0.000,0.000,1,2,0,3,7,255,816,200,141,816
stim,1799,1799,0,610963.829,0.910,0.066,-0.044,-0.406,1958,0,84,2023,58,987,81,475,1,0.000,3,0,0.291,0.026,0.000,0.080,0.280,-0.136,-0.079,0.989,0.000,0.026,-0.014,0.000,0.000,0.000,0.000,1,2,0,3,7,255,816,200,146,816
stim,1799,1799,0,610968.829,0.910,0.066,-0.044,-0.406,1954,0,86,2015,61,985,75,481,1,0.000,3,0,0.492,0.012,0.480,-0.040,0.100,-0.138,-0.083,0.992,0.000,0.012,-0.010,0.000,0.000,0.000,0.000,1,2,0,3,7,255,816,200,151,816
stim,1799,1799,0,610973.829,0.910,0.066,-0.044,-0.406,1948,0,83,2016,67,986,75,483,1,0.000,3,0,0.382,0.029,0.360,-0.100,-0.080,-0.138,-0.087,0.995,0.008,-0.028,0.026,0.000,0.000,0.000,0.000,1,2,0,3,7,255,816,200,156,816
stim,1799,1799,0,610978.829,0.910,0.066,-0.044,-0.406,1951,0,88,2039,64,999,81,477,1,0.000,3,0,0.548,0.037,-0.500,-0.040,-0.220,-0.136,-0.084,0.991,0.024,-0.028,0.026,0.000,0.000,0.000,0.000,1,2,0,3,7,255,816,200,161,816
stim,1799,1799,0,610983.829,0.910,0.066,-0.044,-0.406,1948,0,87,2036,69,995,83,482,1,0.000,3,0,0.984,0.033,-0.980,0.080,0.040,-0.138,-0.081,0.985,0.024,-0.022,0.014,0.000,0.000,0.000,0.000,1,2,0,3,7,255,816,200,166,816
stim,1799,1799,0,610988.829,0.910,0.066,-0.044,-0.406,1951,0,84,2035,59,985,87,483,1,0.000,3,0,0.213,0.022,0.180,0.080,-0.080,-0.138,-0.082,0.988,-0.008,-0.020,-0.018,0.000,0.000,0.000,0.000,1,2,0,3,7,255,816,200,171,816
stim,1827,1827,0,610993.829,0.910,0.066,-0.044,-0.406,1961,0,87,2027,59,999,85,482,1,0.000,3,0,0.835,0.022,0.780,-0.100,-0.280,-0.132,-0.080,0.995,-0.008,-0.020,-0.018,0.000,0.000,0.000,0.000,1,2,0,3,7,255,816,200,176,816
stim,1827,1827,0,610998.829,0.910,0.066,-0.044,-0.406,1947,0,89,2025,60,991,78,485,1,0.000,3,0,0.789,0.042,-0.680,0.020,0.400,-0.129,-0.074,0.989,0.000,0.042,-0.018,0.000,0.000,0.000,0.000,1,2,0,3,7,255,816,200,181,816
stim,1827,1827,0,611003.829,0.910,0.066,-0.044,-0.406,1965,0,88,2023,59,993,83,473,1,0.000,3,0,0.867,0.042,-0.560,0.320,0.580,-0.141,-0.083,0.986,0.000,0.042,-0.028,0.000,0.000,0.000,0.000,1,2,0,3,7,255,816,200,186,816
stim,1827,1827,0,611008.829,0.910,0.066,-0.044,-0.406,1956,0,91,2035,61,995,83,475,1,0.000,3,0,1.009,0.058,0.720,-0.100,-0.700,-0.143,-0.094,0.997,0.000,-0.058,-0.028,0.000,0.000,0.000,0.000,1,2,0,3,7,255,816,200,191,816
stim,1827,1827,0,611013.829,0.910,0.066,-0.044,-0.406,1960,0,88,2028,55,994,83,475,1,0.000,3,0,0.878,0.059,-0.620,-0.340,-0.520,-0.130,-0.073,0.990,-0.012,-0.058,-0.014,0.000,0.000,0.000,0.000,1,2,0,3,7,255,816,200,196,816
stim,1827,1827,0,611018.829,0.910,0.066,-0.044,-0.406,1960,0,91,2035,59,995,79,477,1,0.000,3,0,1.203,0.073,-0.060,0.380,1.140,-0.132,-0.073,0.982,-0.014,0.072,-0.014,0.000,0.000,0.000,0.000,1,2,0,3,7,255,816,200,201,816
stim,1858,1858,0,611023.829,0.910,0.067,-0.044,-0.406,1959,0,91,2035,61,992,83,481,1,0.000,3,0,0.629,0.073,0.240,0.260,-0.520,-0.147,-0.098,0.998,-0.014,0.072,-0.014,0.000,0.000,0.000,0.000,1,2,0,3,7,255,816,200,206,816
stim,1858,1858,0,611028.829,0.910,0.066,-0.044,-0.406,1971,0,85,2015,61,988,76,483,1,0.000,3,0,1.215,0.075,-0.680,-0.660,-0.760,-0.129,-0.072,0.992,-0.022,0.072,0.004,0.000,0.000,0.000,0.000,1,2,0,3,7,255,816,200,211,816
stim,1858,1858,0,611033.829,0.910,0.066,-0.044,-0.406,1962,0,88,2023,56,989,89,474,1,0.000,3,0,1.510,0.034,0.480,0.380,1.380,-0.132,-0.078,0.982,0.004,0.034,0.004,0.000,0.000,0.000,0.000,1,2,0,3,7,255,816,200,216,816
stim,1858,1858,0,611038.829,0.910,0.067,-0.044,-0.406,1952,0,88,2021,62,988,89,477,1,0.000,3,0,1.611,0.034,-0.740,0.380,-1.380,-0.146,-0.092,0.998,0.004,0.034,0.004,0.000,0.000,0.000,0.000,1,2,0,3,7,255,816,200,221,816
stim,1859,1859,0,611043.829,0.910,0.066,-0.044,-0.406,1959,0,85,2033,63,987,80,483,1,0.000,3,0,1.349,0.035,0.480,-0.840,0.940,-0.124,-0.071,0.991,0.008,0.034,-0.018,0.000,0.000,0.000,0.000,1,2,0,3,7,255,816,200,226,816
stim,1859,1859,0,611048.829,0.910,0.067,-0.044,-0.406,1955,0,87,2029,60,983,83,475,1,0.000,3,0,1.368,0.124,-0.680,1.000,-0.640,-0.147,-0.091,0.981,0.008,-0.124,-0.018,0.000,0.000,0.000,0.000,1,2,0,3,7,255,816,200,231,816
stim,1894,1894,0,611053.829,0.910,0.067,-0.044,-0.406,1963,0,87,2029,69,987,89,477,1,0.000,3,0,0.900,0.142,0.420,-0.720,0.340,-0.126,-0.074,1.003,0.008,0.142,-0.018,0.000,0.000,0.000,0.000,1,2,0,3,7,255,816,200,236,816
stim,1894,1894,0,611058.829,0.910,0.067,-0.044,-0.406,1975,0,89,2025,61,984,83,485,1,0.000,3,0,0.776,0.111,-0.620,0.320,-0.340,-0.142,-0.088,0.976,0.012,-0.110,-0.066,0.000,0.000,0.000,0.000,1,2,0,3,7,255,816,200,241,816
stim,1894,1894,0,611063.829,0.910,0.067,-0.044,-0.406,1971,0,88,2025,60,988,86,474,1,0.000,3,0,0.502,0.101,0.300,-0.040,0.400,-0.130,-0.074,1.000,0.012,0.100,0.078,0.000,0.000,0.000,0.000,1,2,0,3,7,255,816,200,246,816
stim,1894,1894,0,611068.829,0.910,0.067,-0.044,-0.406,1957,0,91,2023,63,989,82,479,1,0.000,3,0,0.722,0.073,-0.500,-0.040,-0.520,-0.139,-0.088,0.984,0.012,-0.072,-0.046,0.000,0.000,0.000,0.000,1,2,0,3,7,255,816,200,251,816
stim,1894,1894,0,611073.829,0.910,0.066,-0.044,-0.406,1950,0,89,2021,59,995,85,482,1,0.000,3,0,0.781,0.063,0.180,0.020,0.760,-0.134,-0.075,0.994,-0.008,0.062,0.032,0.000,0.000,0.000,0.000,1,2,0,3,7,255,816,200,256,816
stim,1894,1894,0,611078.829,0.910,0.066,-0.044,-0.406,1963,0,89,2025,60,987,87,484,1,0.000,3,0,1.073,0.044,-0.380,0.080,-1.000,-0.136,-0.085,0.990,0.034,-0.028,0.000,0.000,0.000,0.000,0.000,1,2,0,3,7,255,816,200,261,816
stim,1903,1903,0,611083.829,0.910,0.066,-0.044,-0.406,1969,0,88,2023,57,995,85,475,1,0.000,3,0,1.124,0.009,0.000,-0.100,1.120,-0.137,-0.081,0.989,-0.008,-0.004,0.000,0.000,0.000,0.000,0.000,1,2,0,3,7,255,816,200,266,816
stim,1903,1903,0,611088.829,0.910,0.066,-0.044,-0.406,1949,0,85,2027,67,995,85,481,1,0.000,3,0,1.084,0.013,-0.180,0.140,-1.060,-0.134,-0.080,0.994,0.012,-0.004,0.000,0.000,0.000,0.000,0.000,1,2,0,3,7,255,816,200,271,816
stim,1928,1928,0,611093.829,0.910,0.067,-0.044,-0.406,1950,0,91,2039,69,990,87,479,1,0.000,3,0,0.770,0.013,-0.120,-0.040,0.760,-0.139,-0.085,0.983,0.012,-0.004,-0.006,0.000,0.000,0.000,0.000,1,2,0,3,7,255,816,200,276,816
stim,1928,1928,0,611098.829,0.910,0.066,-0.044,-0.406,1959,0,87,2026,71,987,79,476,1,0.000,3,0,0.307,0.032,-0.120,-0.040,-0.280,-0.133,-0.078,0.997,0.012,0.030,0.036,0.000,0.000,0.000,0.000,1,2,0,3,7,255,816,200,281,816
stim,1929,1929,0,611103.831,0.910,0.066,-0.044,-0.406,1949,0,86,2024,69,991,85,485,1,0.000,3,0,0.349,0.043,-0.060,0.200,-0.280,-0.136,-0.086,0.984,0.016,-0.040,-0.056,0.000,0.000,0.000,0.000,1,2,0,3,7,255,816,200,286,816
stim,1929,1929,0,611108.829,0.910,0.066,-0.044,-0.406,1948,0,88,2015,71,986,71,475,1,0.000,3,0,0.702,0.010,-0.240,-0.160,0.640,-0.139,-0.077,0.992,0.002,0.010,0.020,0.000,0.000,0.000,0.000,1,2,0,3,7,255,816,200,291,816
stim,1967,1967,0,611113.829,0.910,0.066,-0.044,-0.406,1961,0,91,2029,71,986,83,477,1,0.000,3,0,0.598,0.037,0.120,0.080,-0.580,-0.133,-0.086,0.991,0.036,-0.010,0.006,0.000,0.000,0.000,0.000,1,2,0,3,7,255,816,200,296,816
stim,1967,1967,0,611118.829,0.910,0.066,-0.044,-0.406,1955,0,93,2016,62,989,77,479,1,0.000,3,0,0.385,0.002,-0.180,0.020,0.340,-0.136,-0.081,0.987,0.000,0.002,0.006,0.000,0.000,0.000,0.000,1,2,0,3,7,255,816,200,301,816
stim,1967,1967,0,611123.829,0.910,0.066,-0.044,-0.406,1959,0,88,2020,62,986,77,477,1,0.000,3,0,0.198,0.002,0.060,-0.100,0.160,-0.139,-0.078,0.994,0.000,0.002,0.006,0.000,0.000,0.000,0.000,1,2,0,3,7,255,816,200,306,816
stim,1967,1967,0,611128.829,0.910,0.066,-0.044,-0.406,1944,0,91,2009,57,985,74,474,1,0.000,3,0,0.251,0.002,-0.120,0.020,-0.220,-0.133,-0.090,0.990,0.000,0.002,0.004,0.000,0.000,0.000,0.000,1,2,0,3,7,255,816,200,311,816
stim,1967,1967,0,611133.829,0.910,0.066,-0.044,-0.406,1956,0,89,2029,61,995,81,479,1,0.000,3,0,0.405,0.035,-0.060,0.020,0.400,-0.136,-0.076,0.987,-0.034,0.010,0.004,0.000,0.000,0.000,0.000,1,2,0,3,7,255,816,200,316,816
stim,1967,1967,0,611138.829,0.910,0.066,-0.044,-0.406,1955,0,91,2012,69,985,81,472,1,0.000,3,0,0.263,0.037,0.240,-0.040,0.100,-0.139,-0.076,0.992,-0.034,0.014,0.004,0.000,0.000,0.000,0.000,1,2,0,3,7,255,816,200,321,816
stim,1967,1967,0,611143.829,0.910,0.066,-0.044,-0.406,1963,0,91,2021,62,995,82,476,1,0.000,3,0,0.360,0.037,-0.320,-0.040,-0.160,-0.132,-0.094,0.991,-0.034,0.014,0.016,0.000,0.000,0.000,0.000,1,2,0,3,7,255,816,200,326,816
stim,1983,1983,0,611148.829,0.910,0.066,-0.044,-0.406,1951,0,94,2037,58,987,83,477,1,0.000,3,0,0.418,0.015,-0.120,0.020,0.400,-0.135,-0.079,0.985,-0.006,0.014,0.016,0.000,0.000,0.000,0.000,1,2,0,3,7,255,816,200,331,816
stim,1983,1983,0,611153.829,0.910,0.066,-0.044,-0.406,1959,0,87,2043,58,997,76,479,1,0.000,3,0,0.584,0.019,0.540,-0.040,0.220,-0.141,-0.069,0.991,-0.006,0.018,0.008,0.000,0.000,0.000,0.000,1,2,0,3,7,255,816,200,336,816
stim,1983,1983,0,611158.829,0.910,0.066,-0.044,-0.406,1961,0,92,2027,62,989,76,476,1,0.000,3,0,0.359,0.019,-0.060,-0.100,-0.340,-0.135,-0.090,0.996,-0.006,0.018,0.008,0.000,0.000,0.000,0.000,1,2,0,3,7,255,816,200,341,816
stim,1983,1983,0,611163.829,0.910,0.066,-0.044,-0.406,1947,0,87,2013,61,984,75,475,1,0.000,3,0,0.736,0.095,-0.680,-0.040,0.280,-0.131,-0.092,0.986,0.084,-0.044,0.008,0.000,0.000,0.000,0.000,1,2,0,3,7,255,816,200,346,816
stim,1999,1999,0,611168.829,0.910,0.066,-0.044,-0.406,1949,0,89,2023,59,989,75,477,1,0.000,3,0,0.574,0.095,0.240,-0.040,0.520,-0.138,-0.069,0.983,0.084,-0.044,-0.034,0.000,0.000,0.000,0.000,1,2,0,3,7,255,816,200,351,816
stim,1999,1999,0,611173.829,0.910,0.066,-0.044,-0.406,1957,0,88,2016,61,988,81,479,1,0.000,3,0,0.869,0.084,0.840,-0.040,-0.220,-0.139,-0.072,0.996,-0.072,0.044,-0.034,0.000,0.000,0.000,0.000,1,2,0,3,7,255,816,200,356,816
stim,1999,1999,0,611178.829,0.910,0.066,-0.044,-0.406,1947,0,88,2013,63,986,75,475,1,0.000,3,0,0.494,0.084,-0.440,-0.040,-0.220,-0.131,-0.094,0.996,-0.072,0.044,0.054,0.000,0.000,0.000,0.000,1,2,0,3,7,255,816,200,361,816
stim,1999,1999,0,611183.829,0.910,0.066,-0.044,-0.406,1951,0,88,2016,69,986,83,477,1,0.000,3,0,1.174,0.089,-1.040,-0.160,0.520,-0.133,-0.089,0.982,0.080,-0.040,0.054,0.000,0.000,0.000,0.000,1,2,0,3,7,255,816,200,366,816
stim,2015,2015,0,611188.829,0.910,0.066,-0.044,-0.406,1973,0,93,2023,72,991,81,480,1,0.000,3,0,0.585,0.089,0.360,-0.040,0.460,-0.141,-0.071,0.982,0.080,-0.040,-0.072,0.000,0.000,0.000,0.000,1,2,0,3,7,255,816,200,371,816
stim,2015,2015,0,611193.829,0.910,0.066,-0.044,-0.406,1957,0,91,2016,69,995,85,477,1,0.000,3,0,1.217,0.070,1.100,0.020,-0.520,-0.140,-0.074,0.997,-0.066,0.022,-0.072,0.000,0.000,0.000,0.000,1,2,0,3,7,255,816,200,376,816
stim,2015,2015,0,611198.829,0.910,0.066,-0.044,-0.406,1952,0,87,2032,67,988,79,479,1,0.000,3,0,0.520,0.070,-0.240,-0.040,-0.460,-0.131,-0.088,1.000,-0.066,0.022,0.068,0.000,0.000,0.000,0.000,1,2,0,3,7,255,816,200,381,816
stim,2015,2015,0,611203.829,0.910,0.066,-0.044,-0.406,1955,0,88,2025,69,991,78,477,1,0.000,3,0,1.475,0.086,-1.280,-0.220,0.700,-0.131,-0.088,0.986,0.086,0.004,0.068,0.000,0.000,0.000,0.000,1,2,0,3,7,255,816,200,386,816
stim,2031,2031,0,611208.829,0.910,0.066,-0.044,-0.406,1949,0,87,2021,64,992,75,477,1,0.000,3,0,0.860,0.088,-0.240,-0.100,0.820,-0.140,-0.079,0.980,0.086,-0.018,-0.036,0.000,0.000,0.000,0.000,1,2,0,3,7,255,816,200,391,816
stim,2031,2031,0,611213.829,0.910,0.066,-0.044,-0.406,1950,0,88,2023,72,985,83,475,1,0.000,3,0,1.083,0.038,0.980,0.020,-0.460,-0.142,-0.077,0.990,-0.034,-0.018,-0.036,0.000,0.000,0.000,0.000,1,2,0,3,7,255,816,200,396,816
stim,2063,2063,0,611218.829,0.910,0.066,-0.044,-0.406,1957,4,91,2024,61,987,75,483,1,0.000,3,0,1.274,0.038,0.480,0.020,-1.180,-0.132,-0.081,0.997,-0.034,-0.016,0.006,0.000,0.000,0.000,0.000,1,2,0,3,7,255,816,200,401,816
stim,2063,2063,0,611223.829,0.910,0.066,-0.044,-0.406,1959,0,87,2029,69,987,75,477,1,0.000,3,0,0.641,0.054,-0.620,0.020,0.160,-0.126,-0.085,0.993,0.036,0.040,0.020,0.000,0.000,0.000,0.000,1,2,0,3,7,255,816,200,406,816
stim,2063,2063,0,611228.829,0.910,0.066,-0.044,-0.406,1959,0,94,2024,71,987,77,475,1,0.000,3,0,1.547,0.054,-0.680,-0.160,1.380,-0.135,-0.083,0.986,0.036,0.040,0.020,0.000,0.000,0.000,0.000,1,2,0,3,7,255,816,200,411,816
stim,2063,2063,0,611233.829,0.910,0.066,-0.044,-0.406,1957,1,91,2019,75,990,81,475,1,0.000,3,0,0.707,0.032,0.000,-0.100,0.700,-0.145,-0.080,0.986,0.026,-0.018,-0.026,0.000,0.000,0.000,0.000,1,2,0,3,7,255,816,200,416,816
stim,2063,2063,0,611238.829,0.910,0.066,-0.044,-0.406,1959,0,88,2033,72,999,79,479,1,0.000,3,0,1.030,0.058,0.420,0.020,-0.940,-0.142,-0.078,0.991,-0.054,-0.022,-0.026,0.000,0.000,0.000,0.000,1,2,0,3,7,255,816,200,421,816
stim,2063,2063,0,611243.829,0.910,0.066,-0.044,-0.406,1949,0,93,2021,71,984,78,481,1,0.000,3,0,1.266,0.058,0.240,0.080,-1.240,-0.129,-0.081,0.993,-0.054,-0.022,0.012,0.000,0.000,0.000,0.000,1,2,0,3,7,255,816,200,426,816
stim,2079,2079,0,611248.829,0.910,0.066,-0.044,-0.406,1971,0,91,2016,59,988,81,483,1,0.000,3,0,0.279,0.068,-0.260,0.020,0.100,-0.126,-0.085,0.992,0.050,0.046,0.012,0.000,0.000,0.000,0.000,1,2,0,3,7,255,816,200,431,816
stim,2079,2079,0,611253.829,0.910,0.066,-0.044,-0.406,1952,0,86,2023,71,990,75,485,1,0.000,3,0,1.271,0.068,-0.560,-0.040,1.140,-0.137,-0.084,0.989,0.050,0.046,0.010,0.000,0.000,0.000,0.000,1,2,0,3,7,255,816,200,436,816
stim,2079,2079,0,611258.829,0.910,0.066,-0.044,-0.406,1951,0,89,2016,61,989,75,477,1,0.000,3,0,0.637,0.033,-0.260,-0.040,0.580,-0.144,-0.079,0.986,0.020,-0.026,-0.010,0.000,0.000,0.000,0.000,1,2,0,3,7,255,816,200,441,816
stim,2079,2079,0,611263.829,0.910,0.066,-0.044,-0.406,1961,0,92,2023,67,985,81,477,1,0.000,3,0,0.740,0.051,0.240,0.020,-0.700,-0.141,-0.079,0.989,-0.044,-0.026,-0.010,0.000,0.000,0.000,0.000,1,2,0,3,7,255,816,200,446,816
stim,2096,2096,0,611268.829,0.910,0.066,-0.044,-0.406,1951,0,88,2021,69,991,81,481,1,0.000,3,0,0.916,0.048,0.240,0.080,-0.880,-0.131,-0.082,0.993,-0.044,-0.020,-0.004,0.000,0.000,0.000,0.000,1,2,0,3,7,255,816,200,451,816
stim,2096,2096,0,611273.829,0.910,0.066,-0.044,-0.406,1953,0,86,2015,67,989,77,473,1,0.000,3,0,0.185,0.060,-0.180,0.020,0.040,-0.130,-0.083,0.993,0.048,0.036,0.024,0.000,0.000,0.000,0.000,1,2,0,3,7,255,816,200,456,816
stim,2096,2096,0,611278.829,0.910,0.066,-0.044,-0.406,1951,0,87,2037,59,995,75,481,1,0.000,3,0,0.806,0.060,-0.560,0.020,0.580,-0.135,-0.081,0.991,0.048,0.036,0.024,0.000,0.000,0.000,0.000,1,2,0,3,7,255,816,200,461,816
stim,2111,2111,0,611283.829,0.910,0.066,-0.044,-0.406,1950,0,91,2012,63,985,79,475,1,0.000,3,0,0.522,0.017,-0.440,0.020,0.280,-0.140,-0.081,0.987,0.014,0.010,0.004,0.000,0.000,0.000,0.000,1,2,0,3,7,255,816,200,466,816
stim,2111,2111,0,611288.829,0.910,0.066,-0.044,-0.406,1952,0,88,2021,71,984,80,477,1,0.000,3,0,0.305,0.022,-0.120,0.020,-0.280,-0.138,-0.082,0.987,0.002,-0.022,-0.022,0.000,0.000,0.000,0.000,1,2,0,3,7,255,816,200,471,816
stim,2111,2111,0,611293.829,0.910,0.066,-0.044,-0.406,1944,0,84,2010,61,989,73,474,1,0.000,3,0,0.412,0.022,0.060,0.080,-0.400,-0.134,-0.083,0.991,0.002,-0.022,-0.022,0.000,0.000,0.000,0.000,1,2,0,3,7,255,816,200,476,816
stim,2111,2111,0,611298.829,0.910,0.066,-0.044,-0.406,1961,0,89,2027,73,995,82,481,1,0.000,3,0,0.075,0.032,-0.060,0.020,0.040,-0.133,-0.082,0.992,0.030,0.010,0.004,0.000,0.000,0.000,0.000,1,2,0,3,7,255,816,200,481,816
stim,2128,2128,0,611303.830,0.910,0.066,-0.044,-0.406,1944,0,85,2011,70,989,77,475,1,0.000,3,0,0.427,0.034,-0.320,-0.040,0.280,-0.135,-0.080,0.990,0.030,0.016,0.004,0.000,0.000,0.000,0.000,1,2,0,3,7,255,816,200,486,816
stim,2128,2128,0,611308.829,0.910,0.066,-0.044,-0.406,1975,1,88,2035,63,991,75,475,1,0.000,3,0,0.413,0.016,-0.380,0.020,0.160,-0.139,-0.082,0.990,0.000,0.016,0.006,0.000,0.000,0.000,0.000,1,2,0,3,7,255,816,200,491,816
stim,2128,2128,0,611313.829,0.910,0.066,-0.044,-0.406,1948,0,87,2015,59,991,77,477,1,0.000,3,0,0.201,0.016,-0.120,0.020,-0.160,-0.138,-0.082,0.988,-0.004,-0.016,0.000,0.000,0.000,0.000,0.000,1,2,0,3,7,255,816,200,496,816
stim,2128,2128,0,611318.829,0.910,0.066,-0.044,-0.406,1950,0,87,2019,72,988,77,475,1,0.000,3,0,0.297,0.016,0.060,0.080,-0.280,-0.135,-0.082,0.990,-0.004,-0.016,0.000,0.000,0.000,0.000,0.000,1,2,0,3,7,255,816,200,501,816
stim,2160,2160,0,611323.829,0.910,0.066,-0.044,-0.406,1951,0,91,2019,64,985,74,475,1,0.000,3,0,0.102,0.013,-0.060,0.020,-0.080,-0.135,-0.081,0.992,0.012,0.004,0.000,0.000,0.000,0.000,0.000,1,2,0,3,7,255,816,200,506,816
stim,2160,2160,0,611328.829,0.910,0.066,-0.044,-0.406,1965,0,88,2019,75,993,83,481,1,0.000,3,0,0.210,0.013,-0.180,-0.040,0.100,-0.136,-0.082,0.991,0.012,0.004,0.012,0.000,0.000,0.000,0.000,1,2,0,3,7,255,816,200,511,816
stim,2160,2160,0,611333.829,0.910,0.066,-0.044,-0.406,1947,0,87,2017,68,988,77,477,1,0.000,3,0,0.182,0.011,-0.180,0.020,-0.020,-0.138,-0.081,0.990,0.010,-0.004,0.012,0.000,0.000,0.000,0.000,1,2,0,3,7,255,816,200,516,816
stim,2160,2160,0,611338.829,0.910,0.066,-0.044,-0.406,1956,0,91,2022,67,990,79,483,1,0.000,3,0,0.118,0.011,-0.060,0.020,-0.100,-0.135,-0.082,0.988,0.010,-0.004,0.004,0.000,0.000,0.000,0.000,1,2,0,3,7,255,816,200,521,816
stim,2160,2160,0,611343.829,0.910,0.066,-0.044,-0.406,1949,0,88,2020,72,988,75,475,1,0.000,3,0,0.242,0.010,0.060,0.080,-0.220,-0.135,-0.081,0.990,0.008,0.006,-0.004,0.000,0.000,0.000,0.000,1,2,0,3,7,255,816,200,526,816
stim,2160,2160,0,611348.829,0.910,0.066,-0.044,-0.406,1957,0,87,2029,69,995,77,486,1,0.000,3,0,0.179,0.011,0.000,0.080,-0.160,-0.135,-0.081,0.990,0.008,0.008,-0.004,0.000,0.000,0.000,0.000,1,2,0,3,7,255,816,200,531,816
stim,2192,2192,0,611353.829,0.910,0.066,-0.044,-0.406,1959,0,87,2010,71,987,79,477,1,0.000,3,0,0.175,0.009,-0.120,0.080,-0.100,-0.136,-0.080,0.991,0.004,0.008,0.000,0.000,0.000,0.000,0.000,1,2,0,3,7,255,816,200,536,816
stim,2192,2192,0,611358.829,0.910,0.066,-0.044,-0.406,1959,2,89,2027,71,985,75,475,1,0.000,3,0,0.207,0.009,-0.180,0.020,-0.100,-0.136,-0.081,0.989,0.004,0.008,0.000,0.000,0.000,0.000,0.000,1,2,0,3,7,255,816,200,541,816
stim,2192,2192,0,611363.829,0.910,0.066,-0.044,-0.406,1949,0,89,2018,75,987,77,477,1,0.000,3,0,0.175,0.003,-0.120,0.080,-0.100,-0.136,-0.081,0.989,-0.002,0.002,-0.008,0.000,0.000,0.000,0.000,1,2,0,3,7,255,816,200,546,816
stim,2192,2192,0,611368.829,0.910,0.066,-0.044,-0.406,1951,0,89,2041,75,989,79,479,1,0.000,3,0,0.141,0.003,-0.060,0.080,-0.100,-0.137,-0.082,0.990,-0.002,0.002,-0.008,0.000,0.000,0.000,0.000,1,2,0,3,7,255,816,200,551,816
stim,2192,2192,0,611373.829,0.910,0.066,-0.044,-0.406,1953,0,87,2025,71,986,75,475,1,0.000,3,0,0.189,0.003,-0.060,0.080,-0.160,-0.136,-0.081,0.990,-0.002,0.002,0.000,0.000,0.000,0.000,0.000,1,2,0,3,7,255,816,200,556,816
stim,2192,2192,0,611378.829,0.910,0.066,-0.044,-0.406,1951,0,89,2029,73,993,85,481,1,0.000,3,0,0.221,0.008,-0.180,0.080,-0.100,-0.135,-0.081,0.990,0.002,0.008,0.000,0.000,0.000,0.000,0.000,1,2,0,3,7,255,816,200,561,816
stim,2207,2207,0,611383.829,0.910,0.066,-0.044,-0.406,1945,0,91,2011,77,989,81,479,1,0.000,3,0,0.213,0.011,-0.180,0.080,-0.080,-0.135,-0.082,0.991,0.008,0.008,0.000,0.000,0.000,0.000,0.000,1,2,0,3,7,255,816,200,566,816
stim,2207,2207,0,611388.829,0.910,0.066,-0.044,-0.406,1952,0,90,2031,75,995,78,480,1,0.000,3,0,0.146,0.010,-0.120,0.080,-0.020,-0.137,-0.081,0.990,0.008,0.006,0.000,0.000,0.000,0.000,0.000,1,2,0,3,7,255,816,200,571,816
stim,2223,2223,0,611393.829,0.910,0.066,-0.044,-0.406,1957,0,91,2025,74,989,82,475,1,0.000,3,0,0.102,0.006,-0.060,0.020,-0.080,-0.136,-0.080,0.990,-0.002,0.006,0.000,0.000,0.000,0.000,0.000,1,2,0,3,7,255,816,200,576,816
stim,2223,2223,0,611398.829,0.910,0.066,-0.044,-0.406,1959,0,93,2027,75,989,85,479,1,0.000,3,0,0.102,0.004,-0.060,0.080,-0.020,-0.136,-0.081,0.990,-0.002,0.004,0.000,0.000,0.000,0.000,0.000,1,2,0,3,7,255,816,200,581,816
stim,2223,2223,0,611403.829,0.910,0.066,-0.044,-0.406,1959,0,88,2043,73,995,79,476,1,0.000,3,0,0.165,0.008,-0.120,0.080,-0.080,-0.136,-0.080,0.991,-0.002,0.008,0.002,0.000,0.000,0.000,0.000,1,2,0,3,7,255,816,200,586,816
stim,2223,2223,0,611408.829,0.910,0.066,-0.044,-0.406,1961,0,91,2033,72,989,79,483,1,0.000,3,0,0.128,0.006,-0.120,0.020,0.040,-0.136,-0.083,0.990,0.004,0.004,0.002,0.000,0.000,0.000,0.000,1,2,0,3,7,255,816,200,591,816
stim,2271,2271,0,611413.829,0.910,0.066,-0.044,-0.406,1965,0,87,2031,75,998,77,477,1,0.000,3,0,0.123,0.006,-0.120,0.020,-0.020,-0.136,-0.082,0.990,0.004,-0.004,0.002,0.000,0.000,0.000,0.000,1,2,0,3,7,255,816,200,596,816
stim,2271,2271,0,611418.829,0.910,0.066,-0.044,-0.406,1957,0,90,2025,73,999,81,477,1,0.000,3,0,0.123,0.006,-0.120,0.020,-0.020,-0.137,-0.081,0.990,0.004,-0.004,-0.002,0.000,0.000,0.000,0.000,1,2,0,3,7,255,816,200,601,816
stim,2271,2271,0,611423.829,0.910,0.066,-0.044,-0.406,1963,0,88,2031,73,990,80,481,1,0.000,3,0,0.128,0.004,-0.120,0.020,0.040,-0.137,-0.082,0.991,0.000,-0.004,-0.002,0.000,0.000,0.000,0.000,1,2,0,3,7,255,816,200,606,816
stim,2271,2271,0,611428.829,0.910,0.066,-0.044,-0.406,1964,0,91,2031,69,989,83,477,1,0.000,3,0,0.146,0.000,-0.120,0.020,-0.080,-0.135,-0.080,0.990,0.000,0.000,0.000,0.000,0.000,0.000,0.000,1,2,0,3,7,255,816,200,611,816
stim,2271,2271,0,611433.829,0.910,0.066,-0.044,-0.406,1959,0,92,2043,71,987,81,481,1,0.000,3,0,0.123,0.006,-0.120,0.020,-0.020,-0.136,-0.081,0.989,0.000,0.006,0.000,0.000,0.000,0.000,0.000,1,2,0,3,7,255,816,200,616,816
stim,2271,2271,0,611438.829,0.910,0.066,-0.044,-0.406,1959,0,86,2028,61,989,75,480,1,0.000,3,0,0.128,0.010,-0.120,0.020,0.040,-0.136,-0.080,0.990,0.000,0.010,-0.004,0.000,0.000,0.000,0.000,1,2,0,3,7,255,816,200,621,816
stim,2290,2290,0,611443.829,0.910,0.066,-0.044,-0.406,1959,0,93,2030,69,993,77,485,1,0.000,3,0,0.066,0.006,-0.060,0.020,-0.020,-0.136,-0.081,0.991,-0.002,0.006,-0.004,0.000,0.000,0.000,0.000,1,2,0,3,7,255,816,200,626,816
stim,2290,2290,0,611448.829,0.910,0.066,-0.044,-0.406,1966,0,86,2033,61,995,75,482,1,0.000,3,0,0.146,0.004,-0.120,0.080,-0.020,-0.136,-0.082,0.990,-0.002,0.004,-0.002,0.000,0.000,0.000,0.000,1,2,0,3,7,255,816,200,631,816
stim,2290,2290,0,611453.829,0.910,0.066,-0.044,-0.406,1959,0,88,2029,61,987,81,479,1,0.000,3,0,0.157,0.006,-0.120,0.020,-0.100,-0.135,-0.081,0.990,0.004,0.004,0.000,0.000,0.000,0.000,0.000,1,2,0,3,7,255,816,200,636,816
stim,2290,2290,0,611458.829,0.910,0.066,-0.044,-0.406,1952,0,91,2023,64,995,85,481,1,0.000,3,0,0.123,0.006,-0.120,0.020,-0.020,-0.135,-0.082,0.989,0.006,0.002,-0.002,0.000,0.000,0.000,0.000,1,2,0,3,7,255,816,200,641,816
stim,2290,2290,0,611463.829,0.910,0.066,-0.044,-0.406,1951,0,86,2020,71,987,75,477,1,0.000,3,0,0.128,0.006,-0.120,0.020,0.040,-0.136,-0.082,0.991,0.006,0.002,0.000,0.000,0.000,0.000,0.000,1,2,0,3,7,255,816,200,646,816
stim,2290,2290,0,611468.829,0.910,0.066,-0.044,-0.406,1955,0,92,2035,68,995,74,480,1,0.000,3,0,0.157,0.006,-0.120,0.020,0.100,-0.136,-0.082,0.990,0.006,0.002,-0.002,0.000,0.000,0.000,0.000,1,2,0,3,7,255,816,200,651,816
stim,2303,2303,0,611473.829,0.910,0.066,-0.044,-0.406,1965,0,87,2029,71,993,74,477,1,0.000,3,0,0.157,0.006,-0.120,0.020,0.100,-0.135,-0.082,0.989,0.006,0.002,-0.002,0.000,0.000,0.000,0.000,1,2,0,3,7,255,816,200,656,816
stim,2303,2303,0,611478.829,0.910,0.066,-0.044,-0.406,1965,0,88,2036,71,985,75,487,1,0.000,3,0,0.082,0.010,-0.060,-0.040,0.040,-0.135,-0.082,0.991,0.010,0.002,-0.002,0.000,0.000,0.000,0.000,1,2,0,3,7,255,816,200,661,816
stim,2303,2303,0,611483.829,0.911,0.066,-0.044,-0.406,1962,0,89,2022,75,991,81,488,1,0.000,3,0,0.108,0.010,0.000,-0.040,0.100,-0.137,-0.082,0.989,0.010,0.002,-0.006,0.000,0.000,0.000,0.000,1,2,0,3,7,255,816,200,666,816
stim,2303,2303,0,611488.829,0.911,0.066,-0.044,-0.406,1969,0,93,2027,73,1001,77,478,1,0.000,3,0,0.108,0.010,0.000,-0.040,0.100,-0.137,-0.083,0.990,0.006,-0.008,0.000,0.000,0.000,0.000,0.000,1,2,0,3,7,255,816,200,671,816
stim,2329,2329,0,611493.829,0.911,0.067,-0.044,-0.406,1965,0,93,2026,72,995,81,477,1,0.000,3,0,0.108,0.012,0.000,-0.040,0.100,-0.138,-0.082,0.990,0.000,-0.012,0.000,0.000,0.000,0.000,0.000,1,2,0,3,7,255,816,200,676,816
stim,2329,2329,0,611498.829,0.911,0.067,-0.044,-0.406,1979,0,88,2029,74,989,77,485,1,0.000,3,0,0.108,0.012,0.000,-0.040,0.100,-0.136,-0.081,0.991,-0.002,-0.012,0.004,0.000,0.000,0.000,0.000,1,2,0,3,7,255,816,200,681,816
stim,2329,2329,0,611503.830,0.911,0.067,-0.044,-0.406,1961,0,91,2037,79,990,83,476,1,0.000,3,0,0.082,0.007,-0.060,-0.040,0.040,-0.137,-0.081,0.989,-0.006,-0.004,0.004,0.000,0.000,0.000,0.000,1,2,0,3,7,255,816,200,686,816
stim,2329,2329,0,611508.829,0.911,0.067,-0.044,-0.406,1952,0,87,2020,71,987,77,477,1,0.000,3,0,0.057,0.003,0.000,-0.040,0.040,-0.136,-0.082,0.991,-0.002,0.002,0.006,0.000,0.000,0.000,0.000,1,2,0,3,7,255,816,200,691,816
stim,2335,2335,0,611513.829,0.911,0.067,-0.044,-0.406,1957,0,89,2024,71,989,81,479,1,0.000,3,0,0.082,0.004,0.060,-0.040,0.040,-0.136,-0.082,0.990,0.004,0.002,0.002,0.000,0.000,0.000,0.000,1,2,0,3,7,255,816,200,696,816
stim,2335,2335,0,611518.829,0.911,0.067,-0.044,-0.406,1951,0,92,2024,71,986,77,481,1,0.000,3,0,0.057,0.004,0.000,-0.040,0.040,-0.137,-0.081,0.990,0.004,0.002,0.002,0.000,0.000,0.000,0.000,1,2,0,3,7,255,816,200,701,816
stim,2367,2367,0,611523.829,0.911,0.067,-0.044,-0.406,1952,0,91,2023,72,997,77,483,1,0.000,3,0,0.108,0.003,0.000,-0.100,0.040,-0.136,-0.081,0.990,-0.002,0.002,0.002,0.000,0.000,0.000,0.000,1,2,0,3,7,255,816,200,706,816
stim,2367,2367,0,611528.829,0.911,0.067,-0.044,-0.406,1952,0,98,2023,69,991,75,477,1,0.000,3,0,0.108,0.003,0.000,-0.040,0.100,-0.135,-0.081,0.991,-0.002,0.002,0.002,0.000,0.000,0.000,0.000,1,2,0,3,7,255,816,200,711,816
stim,2367,2367,1,611533.829,0.911,0.067,-0.044,-0.406,1957,0,86,2025,75,995,81,480,1,0.000,3,0,0.141,0.004,0.000,-0.100,0.100,-0.136,-0.082,0.990,0.004,0.002,0.002,0.000,0.000,0.000,0.000,1,2,1,3,7,255,816,200,716,816
stim,2367,2367,1,611538.829,0.911,0.067,-0.044,-0.406,1963,0,88,2023,76,988,79,477,1,0.000,3,0,0.141,0.006,0.000,-0.100,0.100,-0.136,-0.081,0.990,0.004,0.004,-0.004,0.000,0.000,0.000,0.000,1,2,1,3,7,255,816,200,721,816
stim,2367,2367,1,611543.829,0.911,0.067,-0.044,-0.406,1960,0,89,2023,71,988,84,479,1,0.000,3,0,0.154,0.004,-0.060,-0.100,0.100,-0.136,-0.081,0.990,0.000,0.004,-0.004,0.000,0.000,0.000,0.000,1,2,1,3,7,255,816,200,726,816
stim,2367,2367,1,611548.829,0.911,0.067,-0.044,-0.406,1965,0,89,2029,64,995,77,479,1,0.000,3,0,0.175,0.004,-0.060,-0.040,0.160,-0.136,-0.082,0.989,0.000,0.004,-0.004,0.000,0.000,0.000,0.000,1,2,1,3,7,255,816,200,731,816
stim,2383,2383,1,611553.829,0.911,0.067,-0.044,-0.406,1963,0,93,2029,69,991,81,481,1,0.000,3,0,0.123,0.008,-0.060,-0.040,0.100,-0.136,-0.082,0.990,0.008,0.000,-0.004,0.000,0.000,0.000,0.000,1,2,1,3,7,255,816,200,736,816
stim,2383,2383,1,611558.829,0.911,0.067,-0.044,-0.406,1963,1,93,2024,72,984,77,483,1,0.000,3,0,0.108,0.008,0.000,-0.040,0.100,-0.135,-0.082,0.989,0.008,0.000,-0.008,0.000,0.000,0.000,0.000,1,2,1,3,7,255,816,200,741,816
stim,2383,2383,1,611563.829,0.911,0.067,-0.044,-0.406,1959,0,90,2027,61,992,77,481,1,0.000,3,0,0.123,0.011,0.060,-0.040,0.100,-0.135,-0.081,0.990,0.008,0.008,-0.004,0.000,0.000,0.000,0.000,1,2,1,3,7,255,816,200,746,816
stim,2383,2383,1,611568.829,0.911,0.067,-0.044,-0.406,1961,0,91,2027,73,997,83,485,1,0.000,3,0,0.406,0.010,0.060,-0.040,0.400,-0.137,-0.081,0.990,0.006,0.008,-0.004,0.000,0.000,0.000,0.000,1,2,1,3,7,255,816,200,751,816
stim,2399,2399,1,611573.829,0.911,0.067,-0.044,-0.406,1958,0,91,2039,61,995,75,487,1,0.000,3,0,0.504,0.008,-0.180,-0.100,0.460,-0.139,-0.081,0.991,-0.008,-0.002,0.002,0.000,0.000,0.000,0.000,1,2,1,3,7,255,816,200,756,816
stim,2399,2399,1,611578.829,0.911,0.067,-0.044,-0.406,1951,0,90,2025,61,993,76,480,1,0.000,3,0,0.745,0.011,-0.380,0.020,-0.640,-0.136,-0.083,0.990,-0.008,-0.008,0.002,0.000,0.000,0.000,0.000,1,2,1,3,7,255,816,200,761,816
stim,2399,2399,1,611583.829,0.911,0.067,-0.044,-0.406,1951,0,90,2019,62,987,75,477,1,0.000,3,0,0.711,0.010,0.300,0.080,-0.640,-0.131,-0.081,0.986,0.006,-0.008,-0.002,0.000,0.000,0.000,0.000,1,2,1,3,7,255,816,200,766,816
stim,2399,2399,1,611588.829,0.911,0.067,-0.044,-0.406,1957,0,92,2036,72,988,80,480,1,0.000,3,0,1.939,0.035,0.600,-0.400,1.800,-0.133,-0.078,0.995,0.006,0.034,-0.002,0.000,0.000,0.000,0.000,1,2,1,3,7,255,816,200,771,816
stim,2415,2415,1,611593.829,0.911,0.067,-0.044,-0.406,1963,0,87,2027,63,989,76,477,1,0.000,3,0,1.201,0.045,-1.160,0.140,-0.280,-0.140,-0.091,0.997,0.030,0.034,0.038,0.000,0.000,0.000,0.000,1,2,1,3,7,255,816,200,776,816
stim,2415,2415,1,611598.829,0.911,0.067,-0.044,-0.406,1957,0,91,2021,67,997,76,483,1,0.000,3,0,0.385,0.037,0.300,-0.100,0.220,-0.146,-0.074,0.978,-0.008,-0.036,0.038,0.000,0.000,0.000,0.000,1,2,1,3,7,255,816,200,781,816
stim,2431,2431,1,611603.829,0.911,0.066,-0.044,-0.406,1963,0,87,2033,67,999,74,477,1,0.000,3,0,0.736,0.047,0.060,-0.220,-0.700,-0.124,-0.066,0.999,-0.030,-0.036,0.054,0.000,0.000,0.000,0.000,1,2,1,3,7,255,816,200,786,816
stim,2431,2431,1,611608.829,0.911,0.067,-0.044,-0.406,1959,0,89,2026,71,992,85,480,1,0.000,3,0,0.755,0.047,0.480,0.560,-0.160,-0.142,-0.111,0.984,-0.030,-0.036,-0.026,0.000,0.000,0.000,0.000,1,2,1,3,7,255,816,200,791,816
stim,2431,2431,1,611613.829,0.911,0.067,-0.044,-0.406,1959,2,90,2024,72,999,79,477,1,0.000,3,0,1.404,0.200,-0.800,-0.960,0.640,-0.120,-0.054,1.005,-0.030,0.198,0.054,0.000,0.000,0.000,0.000,1,2,1,3,7,255,816,200,796,816
stim,2431,2431,1,611618.829,0.911,0.067,-0.044,-0.406,1963,0,93,2039,75,999,83,485,1,0.000,3,0,1.384,0.240,0.180,0.940,1.000,-0.153,-0.097,0.971,-0.004,-0.240,-0.026,0.000,0.000,0.000,0.000,1,2,1,3,7,255,816,200,801,816
stim,2463,2463,1,611623.829,0.911,0.067,-0.044,-0.406,1954,0,90,2025,72,995,77,480,1,0.000,3,0,2.235,0.111,-0.560,-0.720,-2.040,-0.134,-0.073,1.011,-0.040,0.104,0.100,0.000,0.000,0.000,0.000,1,2,1,3,7,255,816,200,806,816
stim,2463,2463,1,611628.829,0.911,0.067,-0.044,-0.406,1952,0,92,2028,70,990,76,479,1,0.000,3,0,1.590,0.086,0.660,0.140,1.440,-0.125,-0.076,0.971,-0.004,0.086,-0.146,0.000,0.000,0.000,0.000,1,2,1,3,7,255,816,200,811,816
stim,2463,2463,1,611633.829,0.911,0.067,-0.044,-0.406,1966,0,90,2031,71,992,77,479,1,0.000,3,0,1.063,0.089,-0.380,0.560,-0.820,-0.145,-0.094,1.001,0.022,0.086,0.132,0.000,0.000,0.000,0.000,1,2,1,3,7,255,816,200,0,816
stim,2463,2463,1,611638.829,0.911,0.067,-0.044,-0.406,1959,0,87,2028,71,998,76,477,1,0.000,3,0,1.144,0.055,-0.060,-1.140,-0.080,-0.132,-0.079,0.994,0.022,0.050,0.028,0.000,0.000,0.000,0.000,1,2,1,3,7,255,816,200,5,816
stim,2463,2463,1,611643.829,0.911,0.067,-0.044,-0.406,1957,0,89,2019,72,997,77,486,1,0.000,3,0,1.286,0.051,-0.620,1.000,0.520,-0.133,-0.073,0.980,0.008,0.050,0.028,0.000,0.000,0.000,0.000,1,2,1,3,7,255,816,200,10,816
stim,2463,2463,1,611648.829,0.911,0.067,-0.044,-0.406,1952,0,88,2025,73,990,79,481,1,0.000,3,0,0.775,0.065,0.480,-0.600,0.100,-0.137,-0.075,0.994,-0.042,0.050,0.028,0.000,0.000,0.000,0.000,1,2,1,3,7,255,816,200,15,816
stim,2479,2479,1,611653.829,0.911,0.067,-0.044,-0.406,1957,0,91,2021,74,990,81,485,1,0.000,3,0,0.658,0.059,0.420,0.500,-0.080,-0.140,-0.090,0.989,-0.042,0.042,0.004,0.000,0.000,0.000,0.000,1,2,1,3,7,255,816,200,20,816
stim,2479,2479,1,611658.829,0.911,0.067,-0.044,-0.406,1963,1,88,2031,61,985,76,487,1,0.000,3,0,1.121,0.090,-0.980,-0.160,-0.520,-0.140,-0.095,0.998,0.036,-0.082,0.036,0.000,0.000,0.000,0.000,1,2,1,3,7,255,816,200,25,816
stim,2479,2479,1,611663.829,0.911,0.067,-0.044,-0.406,1963,0,91,2026,58,994,75,477,1,0.000,3,0,1.059,0.090,-0.800,-0.460,-0.520,-0.136,-0.078,0.985,0.036,-0.082,0.004,0.000,0.000,0.000,0.000,1,2,1,3,7,255,816,200,30,816
stim,2479,2479,1,611668.829,0.911,0.067,-0.044,-0.406,1951,0,84,2013,60,997,76,479,1,0.000,3,0,0.541,0.031,0.420,0.260,0.220,-0.129,-0.067,0.983,-0.024,0.020,-0.054,0.000,0.000,0.000,0.000,1,2,1,3,7,255,816,200,35,816
stim,2495,2495,1,611673.829,0.911,0.067,-0.044,-0.406,1951,0,87,2026,61,995,81,476,1,0.000,3,0,0.864,0.082,0.660,0.200,0.520,-0.131,-0.075,0.991,-0.024,0.078,-0.054,0.000,0.000,0.000,0.000,1,2,1,3,7,255,816,200,40,816
stim,2495,2495,1,611678.829,0.911,0.067,-0.044,-0.406,1951,0,86,2019,53,997,77,480,1,0.000,3,0,0.189,0.080,-0.060,0.080,0.160,-0.138,-0.086,0.993,-0.016,0.078,-0.004,0.000,0.000,0.000,0.000,1,2,1,3,7,255,816,200,45,816
stim,2511,2511,1,611683.829,0.911,0.067,-0.044,-0.406,1961,0,90,2025,59,997,77,483,1,0.000,3,0,0.610,0.043,-0.560,-0.100,-0.220,-0.140,-0.088,0.995,0.024,-0.036,0.036,0.000,0.000,0.000,0.000,1,2,1,3,7,255,816,200,50,816
stim,2511,2511,1,611688.829,0.911,0.067,-0.044,-0.406,1951,0,91,2021,59,989,76,484,1,0.000,3,0,0.725,0.043,-0.620,-0.160,-0.340,-0.139,-0.084,0.990,0.024,-0.036,0.036,0.000,0.000,0.000,0.000,1,2,1,3,7,255,816,200,55,816
stim,2511,2511,1,611693.829,0.911,0.067,-0.044,-0.406,1962,0,95,2029,61,993,79,481,1,0.000,3,0,0.427,0.036,-0.320,-0.040,-0.280,-0.137,-0.082,0.989,0.006,-0.036,0.008,0.000,0.000,0.000,0.000,1,2,1,3,7,255,816,200,60,816
stim,2511,2511,1,611698.830,0.911,0.067,-0.044,-0.406,1963,0,89,2027,64,989,78,479,1,0.000,3,0,0.242,0.006,-0.180,0.020,-0.160,-0.135,-0.080,0.987,-0.002,-0.006,-0.012,0.000,0.000,0.000,0.000,1,2,1,3,7,255,816,200,65,816
stim,2527,2527,1,611703.830,0.911,0.067,-0.044,-0.406,1952,0,85,2024,59,988,77,475,1,0.000,3,0,0.066,0.016,-0.060,0.020,-0.020,-0.135,-0.080,0.989,-0.004,0.016,-0.016,0.000,0.000,0.000,0.000,1,2,1,3,7,255,816,200,70,816
stim,2527,2527,1,611708.829,0.911,0.066,-0.044,-0.406,1961,0,87,2027,67,995,77,475,1,0.000,3,0,0.045,0.020,0.000,0.020,0.040,-0.134,-0.080,0.989,-0.002,0.020,-0.016,0.000,0.000,0.000,0.000,1,2,1,3,7,255,816,200,75,816
stim,2543,2543,1,611713.829,0.911,0.066,-0.044,-0.406,1960,0,87,2025,58,991,79,473,1,0.000,3,0,0.066,0.020,-0.060,0.020,-0.020,-0.135,-0.081,0.990,0.004,0.020,-0.016,0.000,0.000,0.000,0.000,1,2,1,3,7,255,816,200,80,816
stim,2543,2543,1,611718.829,0.911,0.067,-0.044,-0.406,1944,0,83,2017,57,987,73,473,1,0.000,3,0,0.182,0.009,-0.180,0.020,-0.020,-0.135,-0.082,0.991,0.004,0.008,-0.004,0.000,0.000,0.000,0.000,1,2,1,3,7,255,816,200,85,816
stim,2575,2575,1,611723.829,0.911,0.067,-0.044,-0.406,1951,0,83,2023,70,997,77,482,1,0.000,3,0,0.182,0.009,-0.180,0.020,-0.020,-0.137,-0.081,0.991,0.004,0.008,0.008,0.000,0.000,0.000,0.000,1,2,1,3,7,255,816,200,90,816
stim,2575,2575,1,611728.829,0.911,0.066,-0.044,-0.406,1955,0,82,2015,61,995,75,475,1,0.000,3,0,0.150,0.008,-0.120,0.080,0.040,-0.136,-0.081,0.990,-0.002,0.008,0.008,0.000,0.000,0.000,0.000,1,2,1,3,7,255,816,200,95,816
stim,2575,2575,0,611733.829,0.911,0.066,-0.044,-0.405,1949,0,89,2023,57,999,74,479,1,0.000,3,0,0.165,0.010,-0.120,0.080,-0.080,-0.134,-0.079,0.990,-0.006,0.008,0.000,0.000,0.000,0.000,0.000,1,2,0,3,7,255,816,200,100,816
stim,2575,2575,0,611738.829,0.911,0.066,-0.044,-0.405,1957,0,85,2027,56,995,79,479,1,0.000,3,0,0.102,0.029,-0.060,0.020,-0.080,-0.134,-0.079,0.990,-0.006,0.028,-0.008,0.000,0.000,0.000,0.000,1,2,0,3,7,255,816,200,105,816
stim,2575,2575,0,611743.829,0.911,0.066,-0.044,-0.405,1962,0,89,2027,59,996,83,473,1,0.000,3,0,0.146,0.029,-0.120,0.020,-0.080,-0.137,-0.080,0.990,-0.006,0.028,-0.008,0.000,0.000,0.000,0.000,1,2,0,3,7,255,816,200,110,816
stim,2575,2575,0,611748.829,0.911,0.066,-0.044,-0.405,1949,0,91,2037,67,988,80,475,1,0.000,3,0,0.242,0.006,-0.180,0.020,-0.160,-0.138,-0.083,0.989,-0.006,0.002,-0.008,0.000,0.000,0.000,0.000,1,2,0,3,7,255,816,200,115,816
stim,2575,2575,0,611753.829,0.911,0.066,-0.044,-0.405,1951,0,86,2025,71,991,81,475,1,0.000,3,0,0.265,0.022,-0.240,0.080,-0.080,-0.137,-0.083,0.990,0.000,-0.022,-0.002,0.000,0.000,0.000,0.000,1,2,0,3,7,255,816,200,120,816
stim,2591,2591,0,611758.829,0.911,0.066,-0.044,-0.405,1935,0,83,2014,62,992,78,472,1,0.000,3,0,0.182,0.023,-0.180,0.020,-0.020,-0.136,-0.082,0.991,0.006,-0.022,0.000,0.000,0.000,0.000,0.000,1,2,0,3,7,255,816,200,125,816
stim,2591,2591,0,611763.829,0.911,0.066,-0.044,-0.405,1953,1,85,2037,70,985,75,473,1,0.000,3,0,0.185,0.010,-0.180,0.020,0.040,-0.135,-0.082,0.991,0.008,-0.006,0.008,0.000,0.000,0.000,0.000,1,2,0,3,7,255,816,200,130,816
stim,2591,2591,0,611768.829,0.911,0.066,-0.044,-0.405,1951,0,88,2027,85,993,76,475,1,0.000,3,0,0.261,0.007,-0.240,0.020,0.100,-0.137,-0.081,0.990,0.006,-0.004,0.008,0.000,0.000,0.000,0.000,1,2,0,3,7,255,816,200,135,816
stim,2591,2591,0,611773.829,0.911,0.066,-0.044,-0.405,1965,0,89,2022,77,997,78,483,1,0.000,3,0,0.075,0.007,-0.060,0.020,0.040,-0.136,-0.082,0.990,0.006,-0.004,-0.002,0.000,0.000,0.000,0.000,1,2,0,3,7,255,816,200,140,816
stim,2591,2591,0,611778.829,0.911,0.066,-0.044,-0.405,1947,0,88,2013,69,996,82,485,1,0.000,3,0,0.185,0.007,0.180,-0.040,-0.020,-0.136,-0.082,0.989,0.004,-0.006,-0.002,0.000,0.000,0.000,0.000,1,2,0,3,7,255,816,200,145,816
stim,2607,2607,0,611783.829,0.911,0.066,-0.044,-0.405,1969,0,95,2016,67,986,83,473,1,0.000,3,0,0.247,0.007,0.240,-0.040,0.040,-0.136,-0.082,0.990,0.004,-0.006,-0.002,0.000,0.000,0.000,0.000,1,2,0,3,7,255,816,200,150,816
stim,2607,2607,0,611788.829,0.911,0.066,-0.044,-0.405,1953,0,91,2021,60,989,73,480,1,0.000,3,0,0.350,0.009,-0.320,0.140,-0.020,-0.138,-0.085,0.992,0.004,-0.008,0.002,0.000,0.000,0.000,0.000,1,2,0,3,7,255,816,200,155,816
stim,2623,2623,0,611793.829,0.911,0.067,-0.044,-0.405,1952,0,93,2037,72,999,78,482,1,0.000,3,0,1.138,0.036,-1.040,-0.040,-0.460,-0.140,-0.088,0.992,0.016,-0.032,0.022,0.000,0.000,0.000,0.000,1,2,0,3,7,255,816,200,160,816
stim,2623,2623,0,611798.829,0.911,0.066,-0.044,-0.405,1964,0,88,2027,76,990,79,476,1,0.000,3,0,0.719,0.036,-0.320,-0.280,-0.580,-0.132,-0.077,0.987,0.016,-0.032,0.022,0.000,0.000,0.000,0.000,1,2,0,3,7,255,816,200,165,816
stim,2623,2623,0,611803.829,0.911,0.066,-0.044,-0.405,1958,0,91,2035,79,988,83,477,1,0.000,3,0,1.456,0.054,1.160,0.020,0.880,-0.121,-0.061,0.984,-0.004,0.054,-0.040,0.000,0.000,0.000,0.000,1,2,0,3,7,255,816,200,170,816
stim,2623,2623,0,611808.829,0.911,0.066,-0.044,-0.405,1967,1,91,2021,71,989,77,485,1,0.000,3,0,1.682,0.054,0.420,0.760,1.440,-0.141,-0.087,0.991,-0.004,0.054,-0.040,0.000,0.000,0.000,0.000,1,2,0,3,7,255,816,200,175,816
stim,2623,2623,0,611813.829,0.911,0.067,-0.044,-0.405,1971,0,93,2020,68,991,75,475,1,0.000,3,0,2.465,0.071,-1.660,-0.280,-1.800,-0.160,-0.118,1.003,0.014,-0.070,0.024,0.000,0.000,0.000,0.000,1,2,0,3,7,255,816,200,180,816
stim,2639,2639,0,611818.829,0.911,0.066,-0.044,-0.405,1947,0,91,2010,71,988,75,475,1,0.000,3,0,1.868,0.071,-0.060,-1.320,-1.320,-0.120,-0.062,0.984,0.014,-0.070,0.024,0.000,0.000,0.000,0.000,1,2,0,3,7,255,816,200,185,816
stim,2639,2639,0,611823.829,0.911,0.066,-0.044,-0.405,1949,0,89,2015,64,985,76,478,1,0.000,3,0,3.598,0.239,1.580,1.300,2.960,-0.122,-0.051,0.971,-0.038,0.236,-0.092,0.000,0.000,0.000,0.000,1,2,0,3,7,255,816,200,190,816
stim,2671,2671,0,611828.829,0.911,0.067,-0.044,-0.405,1967,0,90,2017,69,987,77,479,1,0.000,3,0,1.952,0.239,-1.400,0.560,-1.240,-0.160,-0.126,1.012,-0.038,0.236,-0.092,0.000,0.000,0.000,0.000,1,2,0,3,7,255,816,200,195,816
stim,2671,2671,0,611833.829,0.911,0.066,-0.044,-0.405,1951,0,87,2029,69,991,85,483,1,0.000,3,0,2.632,0.192,-0.620,-2.300,-1.120,-0.125,-0.065,0.991,-0.048,0.186,-0.016,0.000,0.000,0.000,0.000,1,2,0,3,7,255,816,200,200,816
stim,2693,2693,0,611838.829,0.911,0.066,-0.044,-0.405,1957,0,90,2015,67,987,79,475,1,0.000,3,0,3.563,0.069,1.760,2.160,2.220,-0.136,-0.068,0.966,-0.048,0.050,-0.016,0.000,0.000,0.000,0.000,1,2,0,3,7,255,816,200,205,816
stim,2693,2693,0,611843.829,0.911,0.067,-0.044,-0.405,1963,0,95,2024,71,989,83,480,1,0.000,3,0,2.885,0.069,-1.840,-0.520,-2.160,-0.139,-0.111,1.022,-0.048,0.050,-0.016,0.000,0.000,0.000,0.000,1,2,0,3,7,255,816,200,210,816
stim,2693,2693,0,611848.829,0.911,0.066,-0.044,-0.405,1955,0,91,2019,71,995,77,480,1,0.000,3,0,2.425,0.112,0.720,-1.380,1.860,-0.131,-0.049,0.967,-0.100,0.050,-0.240,0.000,0.000,0.000,0.000,1,2,0,3,7,255,816,200,215,816
stim,2693,2693,0,611853.829,0.911,0.067,-0.044,-0.405,1959,0,93,2025,64,989,81,479,1,0.000,3,0,2.856,0.245,0.180,2.460,-1.440,-0.144,-0.112,0.999,0.178,-0.168,0.124,0.000,0.000,0.000,0.000,1,2,0,3,7,255,816,200,220,816
stim,2693,2693,0,611858.829,0.911,0.066,-0.044,-0.405,1952,0,92,2016,62,990,83,479,1,0.000,3,0,3.222,0.227,-1.100,-2.780,1.200,-0.125,-0.058,0.994,-0.096,0.206,0.006,0.000,0.000,0.000,0.000,1,2,0,3,7,255,816,200,225,816
stim,2693,2693,0,611863.829,0.911,0.066,-0.044,-0.405,1971,0,91,2029,61,997,79,488,1,0.000,3,0,2.881,0.226,1.400,2.400,-0.760,-0.149,-0.098,0.976,0.030,-0.224,0.006,0.000,0.000,0.000,0.000,1,2,0,3,7,255,816,200,230,816
stim,2693,2693,0,611868.829,0.911,0.066,-0.044,-0.405,1960,0,90,2040,79,995,83,485,1,0.000,3,0,2.441,0.186,-1.540,-1.760,0.700,-0.122,-0.074,1.011,0.030,0.184,0.006,0.000,0.000,0.000,0.000,1,2,0,3,7,255,816,200,235,816
stim,2693,2693,0,611873.829,0.911,0.066,-0.044,-0.405,1971,0,87,2035,71,988,77,483,1,0.000,3,0,1.752,0.145,1.400,0.880,-0.580,-0.148,-0.085,0.971,0.030,-0.142,-0.108,0.000,0.000,0.000,0.000,1,2,0,3,7,255,816,200,240,816
stim,2703,2703,0,611878.829,0.911,0.066,-0.044,-0.405,1959,0,89,2033,72,989,84,477,1,0.000,3,0,1.475,0.102,-1.280,-0.220,0.700,-0.126,-0.081,1.005,0.044,0.092,0.136,0.000,0.000,0.000,0.000,1,2,0,3,7,255,816,200,245,816
stim,2703,2703,0,611883.829,0.911,0.066,-0.044,-0.405,1972,0,91,2021,73,1000,75,483,1,0.000,3,0,1.236,0.082,0.980,-0.280,-0.700,-0.144,-0.081,0.981,-0.052,-0.064,-0.078,0.000,0.000,0.000,0.000,1,2,0,3,7,255,816,200,250,816
stim,2723,2723,0,611888.829,0.911,0.067,-0.044,-0.405,1963,0,88,2035,76,1000,77,480,1,0.000,3,0,1.332,0.055,-0.800,0.500,0.940,-0.131,-0.082,0.994,0.040,0.038,0.028,0.000,0.000,0.000,0.000,1,2,0,3,7,255,816,200,255,816
stim,2723,2723,0,611893.829,0.911,0.067,-0.044,-0.405,1952,0,86,2043,75,999,79,485,1,0.000,3,0,1.099,0.028,0.420,-0.600,-0.820,-0.139,-0.081,0.992,-0.022,-0.018,0.024,0.000,0.000,0.000,0.000,1,2,0,3,7,255,816,200,260,816
stim,2723,2723,0,611898.829,0.911,0.067,-0.044,-0.405,1960,0,89,2037,75,997,79,487,1,0.000,3,0,0.860,0.028,0.000,0.500,0.700,-0.133,-0.080,0.987,0.010,0.026,0.024,0.000,0.000,0.000,0.000,1,2,0,3,7,255,816,200,265,816
stim,2723,2723,0,611903.830,0.911,0.067,-0.044,-0.405,1960,0,93,2021,71,989,81,485,1,0.000,3,0,0.685,0.021,-0.440,-0.400,-0.340,-0.137,-0.085,0.993,0.010,-0.018,0.024,0.000,0.000,0.000,0.000,1,2,0,3,7,255,816,200,270,816
stim,2735,2735,0,611908.829,0.911,0.066,-0.044,-0.405,1961,0,89,2024,73,989,81,487,1,0.000,3,0,0.716,0.028,0.660,0.260,0.100,-0.134,-0.075,0.988,0.010,0.026,-0.024,0.000,0.000,0.000,0.000,1,2,0,3,7,255,816,200,275,816
stim,2735,2735,0,611913.829,0.911,0.066,-0.044,-0.405,1960,0,95,2037,72,989,77,478,1,0.000,3,0,0.918,0.033,-0.860,-0.160,0.280,-0.136,-0.090,0.992,0.022,-0.024,0.024,0.000,0.000,0.000,0.000,1,2,0,3,7,255,816,200,280,816
