condition_phase,condition_phase_elapsed_ms,condition_elapsed_ms,is_stimulation_on,t_ms,R_q0,R_q1,R_q2,R_q3,R_heel1,R_mid1,R_fore1,R_heel2,R_fore3,R_mid2,R_fore4,R_fore2,R_cadence,R_speed,R_steps,R_zupt,R_gyroNorm,R_accH,R_gyro_x,R_gyro_y,R_gyro_z,R_acc_x,R_acc_y,R_acc_z,R_nav_ax,R_nav_ay,R_nav_az,R_stepVel,R_stepVelj,R_stepDispRaw,R_stepDispZUPT,R_gaitEvent,R_motorMode,R_motorActive,R_motorAlignment,R_motorRegionMask,R_motorAmplitude,R_motorIntervalMs,R_motorDurationMs,R_motorPhaseMs,R_motorCycleMs
stim,105055,105055,0,5422079.722,-0.162,-0.705,0.624,0.296,45,81,71,31,35,0,68,14,42,0.000,4,0,5.258,1.522,1.020,5.060,1.000,-0.364,0.071,-0.925,0.844,-1.266,-0.168,0.000,0.000,0.156,0.320,2,2,0,3,7,255,1125,200,418,1125
stim,105055,105055,0,5422079.850,-0.162,-0.705,0.624,0.296,73,88,75,67,35,0,56,38,42,0.000,4,0,4.211,1.483,0.360,4.140,0.680,-0.374,0.075,-0.916,0.838,-1.224,-0.206,0.000,0.000,0.156,0.320,2,2,0,3,7,255,1125,200,418,1125
stim,105055,105055,0,5422079.883,-0.162,-0.705,0.624,0.296,51,66,73,55,11,0,43,36,42,0.000,4,0,3.539,1.443,-0.920,2.800,1.960,-0.371,0.066,-0.901,0.880,-1.144,-0.238,0.000,0.000,0.156,0.320,2,2,0,3,7,255,1125,200,418,1125
stim,105055,105055,0,5422079.914,-0.162,-0.705,0.624,0.295,47,58,74,59,16,0,41,39,42,0.000,4,0,4.770,1.420,-3.300,0.160,3.440,-0.355,0.069,-0.890,0.842,-1.144,-0.388,0.000,0.000,0.156,0.320,2,2,0,3,7,255,1125,200,418,1125
stim,105055,105055,0,5422083.786,-0.162,-0.705,0.625,0.295,63,57,71,69,20,0,45,45,42,0.000,4,0,6.066,1.454,-3.980,-2.640,3.740,-0.345,0.073,-0.892,0.842,-1.186,-0.552,0.000,0.000,0.156,0.320,2,2,0,3,7,255,1125,200,422,1125
stim,105071,105071,0,5422084.327,-0.162,-0.704,0.625,0.295,45,59,83,44,23,0,57,33,42,0.000,4,0,9.323,1.491,-7.880,-2.220,4.460,-0.352,0.067,-0.896,0.842,-1.230,-0.552,0.000,0.000,0.156,0.320,2,2,0,3,7,255,1125,200,422,1125
stim,105071,105071,0,5422063.161,-0.162,-0.704,0.625,0.295,53,59,83,62,21,0,45,41,42,0.000,4,0,9.670,1.502,-8.260,-2.640,4.280,-0.355,0.068,-0.894,0.862,-1.230,-0.516,0.000,0.000,0.156,0.320,2,2,0,3,7,255,1125,200,401,1125
stim,105071,105071,0,5422068.161,-0.162,-0.704,0.625,0.296,46,59,73,39,41,0,57,16,42,0.000,4,0,10.316,1.475,-8.680,-3.500,4.340,-0.370,0.066,-0.895,0.866,-1.194,-0.516,0.000,0.000,0.156,0.320,2,2,0,3,7,255,1125,200,406,1125
stim,105071,105071,0,5422073.161,-0.162,-0.704,0.625,0.296,49,77,54,39,39,4,59,18,42,0.000,4,0,10.597,1.384,-8.560,-4.160,4.660,-0.372,0.067,-0.902,0.866,-1.080,-0.448,0.000,0.000,0.156,0.320,2,2,0,3,7,255,1125,200,411,1125
stim,105071,105071,0,5422078.163,-0.162,-0.704,0.625,0.296,69,76,55,39,40,6,53,18,42,0.000,4,0,9.885,1.388,-7.700,-4.540,4.220,-0.369,0.066,-0.910,0.872,-1.080,-0.378,0.000,0.000,0.156,0.320,2,2,0,3,7,255,1125,200,416,1125
stim,105135,105135,0,5422083.161,-0.162,-0.704,0.625,0.296,73,85,53,41,39,5,36,16,42,0.000,4,0,8.413,1.458,-6.180,-4.600,3.380,-0.370,0.064,-0.915,0.906,-1.142,-0.328,0.000,0.000,0.156,0.320,2,2,0,3,7,255,1125,200,421,1125
stim,105135,105135,0,5422088.161,-0.162,-0.704,0.625,0.296,43,59,76,58,14,0,40,39,42,0.000,4,0,7.012,1.458,-4.160,-5.080,2.460,-0.375,0.067,-0.912,0.906,-1.142,-0.282,0.000,0.000,0.156,0.320,2,2,0,3,7,255,1125,200,426,1125
stim,105135,105135,0,5422093.161,-0.162,-0.704,0.625,0.296,57,63,71,57,17,0,35,43,42,0.000,4,0,7.135,1.414,-2.540,-6.420,1.800,-0.377,0.073,-0.908,0.888,-1.100,-0.282,0.000,0.000,0.156,0.320,2,2,0,3,7,255,1125,200,431,1125
stim,105135,105135,0,5422098.161,-0.163,-0.704,0.625,0.296,73,69,49,59,18,0,35,39,42,0.000,4,0,7.568,1.398,-1.180,-7.400,1.060,-0.376,0.070,-0.914,0.862,-1.100,-0.282,0.000,0.000,0.156,0.320,2,2,0,3,7,255,1125,200,436,1125
stim,105135,105135,0,5422103.161,-0.163,-0.703,0.625,0.296,59,77,45,57,27,0,31,6,42,0.000,4,0,8.157,1.382,0.760,-8.120,-0.160,-0.370,0.074,-0.916,0.824,-1.110,-0.260,0.000,0.000,0.156,0.320,2,2,0,3,7,255,1125,200,441,1125
stim,105151,105151,0,5422108.162,-0.164,-0.703,0.625,0.295,52,79,75,37,36,3,61,9,42,0.000,4,0,7.690,1.443,1.260,-7.460,-1.380,-0.369,0.075,-0.912,0.824,-1.184,-0.260,0.000,0.000,0.156,0.320,2,2,0,3,7,255,1125,200,446,1125
stim,105151,105151,0,5422113.162,-0.164,-0.703,0.625,0.295,61,54,53,59,19,0,38,39,42,0.000,4,0,8.482,1.443,2.360,-7.760,-2.480,-0.372,0.071,-0.916,0.824,-1.184,-0.260,0.000,0.000,0.156,0.320,2,2,0,3,7,255,1125,200,451,1125
stim,105151,105151,0,5422118.161,-0.165,-0.703,0.625,0.295,40,52,45,36,41,10,45,11,42,0.000,4,0,9.242,1.444,3.020,-7.940,-3.640,-0.377,0.066,-0.918,0.840,-1.174,-0.250,0.000,0.000,0.156,0.320,2,2,0,3,7,255,1125,200,456,1125
stim,105151,105151,0,5422123.161,-0.165,-0.704,0.625,0.295,59,59,71,55,19,0,39,41,42,0.000,4,0,9.944,1.444,3.080,-8.000,-5.040,-0.371,0.076,-0.916,0.840,-1.174,-0.246,0.000,0.000,0.156,0.320,2,2,0,3,7,255,1125,200,461,1125
stim,105151,105151,0,5422128.161,-0.166,-0.704,0.625,0.295,77,87,45,66,20,3,41,39,42,0.000,4,0,9.726,1.411,1.320,-7.940,-5.460,-0.374,0.077,-0.914,0.776,-1.178,-0.246,0.000,0.000,0.156,0.320,2,2,0,3,7,255,1125,200,466,1125
stim,105151,105151,0,5422133.161,-0.166,-0.704,0.625,0.295,43,54,75,37,40,9,56,13,42,0.000,4,0,10.595,1.399,0.880,-8.320,-6.500,-0.369,0.076,-0.902,0.754,-1.178,-0.256,0.000,0.000,0.156,0.320,2,2,0,3,7,255,1125,200,471,1125
stim,105167,105167,0,5422143.161,-0.167,-0.704,0.624,0.295,76,83,45,56,19,0,30,43,42,0.000,4,0,9.939,1.388,1.600,-5.760,-7.940,-0.370,0.077,-0.920,0.740,-1.174,-0.230,0.000,0.000,0.156,0.320,2,2,0,3,7,255,1125,200,481,1125
stim,105167,105167,0,5422148.161,-0.167,-0.704,0.624,0.295,42,59,81,39,45,0,69,16,42,0.000,4,0,11.180,1.454,3.060,-6.180,-8.800,-0.365,0.077,-0.917,0.740,-1.252,-0.230,0.000,0.000,0.156,0.320,2,2,0,3,7,255,1125,200,486,1125
stim,105167,105167,0,5422153.161,-0.168,-0.704,0.624,0.294,44,77,73,37,39,0,61,17,42,0.000,4,0,10.027,1.463,0.500,-6.180,-7.880,-0.366,0.089,-0.907,0.734,-1.266,-0.268,0.000,0.000,0.156,0.320,2,2,0,3,7,255,1125,200,491,1125
stim,105167,105167,0,5422158.161,-0.168,-0.705,0.623,0.294,71,79,45,31,41,4,47,9,42,0.000,4,0,9.689,1.417,-1.560,-6.920,-6.600,-0.370,0.097,-0.927,0.590,-1.288,-0.268,0.000,0.000,0.156,0.320,2,2,0,3,7,255,1125,200,496,1125
stim,105167,105167,0,5422163.163,-0.168,-0.705,0.623,0.294,69,55,51,61,19,0,39,38,42,0.000,4,0,9.703,1.434,-3.580,-7.100,-5.560,-0.373,0.100,-0.931,0.542,-1.328,-0.122,0.000,0.000,0.156,0.320,2,2,0,3,7,255,1125,200,501,1125
stim,105183,105183,0,5422168.161,-0.168,-0.705,0.623,0.295,87,95,6,51,39,0,28,21,42,0.000,4,0,9.882,1.436,-5.100,-7.040,-4.700,-0.372,0.086,-0.942,0.542,-1.330,-0.078,0.000,0.000,0.156,0.320,2,2,0,3,7,255,1125,200,506,1125
stim,105183,105183,0,5422173.161,-0.168,-0.705,0.623,0.295,45,57,77,54,24,0,46,47,42,0.000,4,0,10.175,1.488,-5.840,-6.920,-4.640,-0.381,0.081,-0.943,0.668,-1.330,0.002,0.000,0.000,0.156,0.320,2,2,0,3,7,255,1125,200,511,1125
stim,105183,105183,0,5422178.161,-0.169,-0.705,0.623,0.295,62,81,53,40,33,3,52,16,42,0.000,4,0,11.264,1.466,-7.560,-7.340,-3.980,-0.390,0.078,-0.942,0.714,-1.280,0.038,0.000,0.000,0.156,0.320,2,2,0,3,7,255,1125,200,516,1125
stim,105232,105232,0,5422183.161,-0.169,-0.705,0.623,0.295,59,89,49,33,45,17,48,0,42,0.000,4,0,12.472,1.410,-8.960,-8.140,-3.000,-0.390,0.074,-0.940,0.730,-1.206,0.040,0.000,0.000,0.156,0.320,2,2,0,3,7,255,1125,200,521,1125
stim,105232,105232,0,5422188.161,-0.169,-0.705,0.622,0.295,53,57,82,39,25,0,59,42,42,0.000,4,0,13.548,1.430,-9.800,-9.120,-2.080,-0.386,0.069,-0.939,0.768,-1.206,0.040,0.000,0.000,0.156,0.320,2,2,0,3,7,255,1125,200,526,1125
stim,105232,105232,0,5422193.161,-0.169,-0.705,0.622,0.296,86,91,51,63,27,0,37,22,42,0.000,4,0,13.510,1.467,-9.300,-9.540,-2.240,-0.384,0.064,-0.939,0.814,-1.220,0.008,0.000,0.000,0.156,0.320,2,2,0,3,7,255,1125,200,531,1125
stim,105232,105232,0,5422198.161,-0.169,-0.705,0.622,0.296,71,59,57,61,18,0,36,41,42,0.000,4,0,12.895,1.508,-8.580,-9.100,-3.140,-0.388,0.059,-0.949,0.866,-1.234,0.008,0.000,0.000,0.156,0.320,2,2,0,3,7,255,1125,200,536,1125
stim,105232,105232,0,5422203.161,-0.169,-0.705,0.622,0.296,71,76,53,37,41,6,60,12,42,0.000,4,0,12.793,1.537,-8.880,-8.380,-3.820,-0.403,0.062,-0.959,0.916,-1.234,0.088,0.000,0.000,0.156,0.320,2,2,0,3,7,255,1125,200,541,1125
stim,105232,105232,0,5422208.161,-0.169,-0.705,0.622,0.296,71,79,48,39,39,9,56,18,42,0.000,4,0,13.467,1.481,-11.320,-6.980,-2.120,-0.421,0.063,-0.975,0.918,-1.162,0.250,0.000,0.000,0.156,0.320,2,2,0,3,7,255,1125,200,546,1125
stim,105232,105232,0,5422213.163,-0.169,-0.705,0.622,0.297,74,80,48,35,37,6,53,20,42,0.000,4,0,15.109,1.454,-14.260,-4.960,0.580,-0.428,0.065,-1.000,0.918,-1.128,0.464,0.000,0.000,0.156,0.320,2,2,0,3,7,255,1125,200,551,1125
stim,105232,105232,0,5422218.161,-0.169,-0.705,0.622,0.297,75,61,46,69,22,4,38,37,42,0.000,4,0,16.288,1.454,-15.840,-2.580,2.780,-0.437,0.073,-1.016,0.918,-1.128,0.714,0.000,0.000,0.156,0.320,2,2,0,3,7,255,1125,200,556,1125
stim,105232,105232,0,5422223.161,-0.168,-0.705,0.622,0.297,77,82,47,57,30,0,27,22,42,0.000,4,0,17.421,1.449,-16.640,-1.780,4.840,-0.439,0.078,-1.017,0.910,-1.128,0.900,0.000,0.000,0.156,0.320,2,2,0,3,7,255,1125,200,561,1125
stim,105232,105232,0,5422228.161,-0.168,-0.705,0.622,0.298,81,85,47,67,16,0,35,39,42,0.000,4,0,20.651,1.443,-19.620,-0.200,6.440,-0.436,0.070,-1.000,0.910,-1.120,0.900,0.000,0.000,0.156,0.320,2,2,0,3,7,255,1125,200,566,1125
stim,105232,105232,0,5422233.161,-0.167,-0.704,0.622,0.298,66,85,53,29,27,5,37,17,42,0.000,4,0,23.359,1.449,-21.820,-0.560,8.320,-0.421,0.063,-0.984,0.932,-1.110,0.758,0.000,0.000,0.156,0.320,2,2,0,3,7,255,1125,200,571,1125
stim,105263,105263,0,5422238.161,-0.167,-0.704,0.622,0.299,76,83,59,56,22,0,40,39,42,0.000,4,0,25.774,1.491,-23.780,-1.660,9.800,-0.396,0.053,-0.957,0.996,-1.110,0.540,0.000,0.000,0.156,0.320,2,2,0,3,7,255,1125,200,576,1125
stim,105263,105263,0,5422243.161,-0.166,-0.704,0.623,0.299,45,61,74,43,19,0,59,39,42,0.000,4,0,29.021,1.575,-26.300,-2.820,11.940,-0.393,0.045,-0.944,1.078,-1.148,0.174,0.000,0.000,0.156,0.320,2,2,0,3,7,255,1125,200,581,1125
stim,105263,105263,0,5422248.161,-0.165,-0.703,0.623,0.300,74,79,44,41,29,2,37,7,42,0.000,4,0,34.514,1.624,-30.340,-2.760,16.220,-0.382,0.040,-0.922,1.148,-1.148,0.038,0.000,0.000,0.156,0.320,2,2,0,3,7,255,1125,200,586,1125
stim,105263,105263,0,5422253.161,-0.164,-0.703,0.623,0.301,53,84,73,35,37,3,58,16,42,0.000,4,0,35.636,1.624,-31.560,-2.620,16.340,-0.376,0.053,-0.938,1.148,-1.148,-0.086,0.000,0.000,0.156,0.320,2,2,0,3,7,255,1125,200,591,1125
stim,105263,105263,0,5422258.161,-0.163,-0.702,0.624,0.302,71,88,47,40,38,7,55,10,42,0.000,4,0,39.982,1.628,-34.980,-0.980,19.340,-0.403,0.049,-0.933,1.160,-1.142,-0.086,0.000,0.000,0.156,0.320,2,2,0,3,7,255,1125,200,596,1125
stim,105263,105263,0,5422263.161,-0.161,-0.702,0.624,0.303,72,84,48,33,37,5,52,13,42,0.000,4,0,53.829,1.537,-43.580,5.800,31.060,-0.416,0.038,-0.896,1.160,-1.008,-0.086,0.000,0.000,0.156,0.320,2,2,0,3,7,255,1125,200,601,1125
stim,105263,105263,0,5422268.162,-0.160,-0.701,0.625,0.304,73,89,53,33,45,3,51,8,42,0.000,4,0,50.795,1.567,-44.380,0.660,24.700,-0.371,0.067,-0.983,1.200,-1.008,-0.016,0.000,0.000,0.156,0.320,2,2,0,3,7,255,1125,200,606,1125
stim,105263,105263,0,5422273.161,-0.158,-0.700,0.626,0.305,72,85,53,61,39,9,36,22,42,0.000,4,0,56.815,1.610,-50.360,-0.320,26.300,-0.422,0.078,-0.983,1.200,-1.074,0.294,0.000,0.000,0.156,0.320,2,2,0,3,7,255,1125,200,611,1125
stim,105263,105263,0,5422278.161,-0.156,-0.700,0.626,0.307,63,67,55,56,13,0,27,31,42,0.000,4,0,63.537,1.559,-57.060,-0.680,27.940,-0.433,0.088,-1.007,1.114,-1.090,0.538,0.000,0.000,0.156,0.320,2,2,0,3,7,255,1125,200,616,1125
stim,105343,105343,0,5422283.161,-0.154,-0.699,0.627,0.309,79,70,67,57,21,0,62,43,42,0.000,4,0,67.647,1.559,-60.480,-1.600,30.260,-0.428,0.065,-1.015,1.114,-1.090,0.796,0.000,0.000,0.156,0.320,2,2,0,3,7,255,1125,200,621,1125
stim,105343,105343,0,5422288.161,-0.152,-0.698,0.627,0.310,56,71,73,41,47,1,55,35,42,0.000,4,0,69.660,1.781,-62.260,-0.560,31.240,-0.446,0.052,-0.991,1.408,-1.090,0.796,0.000,0.000,0.156,0.320,2,2,0,3,7,255,1125,200,626,1125
stim,105343,105343,0,5422293.161,-0.150,-0.697,0.628,0.312,73,87,53,43,44,11,57,20,42,0.000,4,0,69.507,1.846,-62.400,2.180,30.540,-0.405,0.012,-0.973,1.526,-1.038,0.640,0.000,0.000,0.156,0.320,2,2,0,3,7,255,1125,200,631,1125
stim,105343,105343,0,5422298.161,-0.148,-0.696,0.629,0.314,64,84,49,39,45,4,59,17,42,0.000,4,0,68.865,1.736,-61.680,2.980,30.480,-0.449,0.054,-0.898,1.526,-0.828,0.220,0.000,0.000,0.156,0.320,2,2,0,3,7,255,1125,200,636,1125
stim,105343,105343,0,5422303.161,-0.146,-0.695,0.629,0.315,68,83,49,43,43,5,54,16,42,0.000,4,0,67.625,1.878,-60.080,-0.200,31.040,-0.425,0.017,-0.891,1.806,-0.516,-0.158,0.000,0.000,0.156,0.320,2,2,0,3,7,255,1125,200,641,1125
stim,105343,105343,0,5422308.161,-0.144,-0.694,0.630,0.317,71,87,55,36,38,8,55,13,42,0.000,4,0,65.062,1.878,-57.700,0.420,30.060,-0.454,0.034,-0.954,1.806,-0.516,-0.158,0.000,0.000,0.156,0.320,2,2,0,3,7,255,1125,200,646,1125
stim,105343,105343,0,5422313.163,-0.142,-0.694,0.630,0.318,71,83,46,43,35,8,55,16,42,0.000,4,0,63.702,1.912,-53.980,4.380,33.540,-0.462,0.046,-0.992,1.834,-0.540,0.290,0.000,0.000,0.156,0.320,2,2,0,3,7,255,1125,200,651,1125
stim,105343,105343,0,5422318.161,-0.140,-0.693,0.631,0.319,52,87,53,38,37,11,61,11,42,0.000,4,0,63.110,1.969,-51.980,8.280,34.820,-0.474,0.055,-1.037,1.864,-0.634,0.666,0.000,0.000,0.156,0.320,2,2,0,3,7,255,1125,200,656,1125
stim,105343,105343,0,5422323.161,-0.138,-0.692,0.632,0.320,45,57,85,57,18,0,43,45,42,0.000,4,0,63.377,2.005,-50.740,9.760,36.700,-0.478,0.080,-1.079,1.874,-0.714,1.108,0.000,0.000,0.156,0.320,2,2,0,3,7,255,1125,200,661,1125
stim,105343,105343,0,5422328.161,-0.136,-0.691,0.633,0.322,57,83,73,33,39,1,61,16,42,0.000,4,0,66.005,2.005,-51.720,11.580,39.340,-0.510,0.100,-1.075,1.874,-0.714,1.526,0.000,0.000,0.156,0.320,2,2,0,3,7,255,1125,200,666,1125
stim,105343,105343,0,5422333.161,-0.133,-0.690,0.634,0.323,75,83,55,56,18,1,35,26,42,0.000,4,0,71.893,1.991,-56.540,10.360,43.180,-0.492,0.091,-1.073,1.866,-0.694,1.544,0.000,0.000,0.156,0.320,2,2,0,3,7,255,1125,200,671,1125
stim,105359,105359,0,5422341.894,-0.131,-0.689,0.635,0.324,41,58,75,31,45,1,57,11,42,0.000,4,0,77.660,1.991,-61.000,10.240,46.960,-0.491,0.093,-1.078,1.866,-0.694,1.576,0.000,0.000,0.156,0.320,2,2,0,3,7,255,1125,200,680,1125
stim,105359,105359,0,5422346.894,-0.128,-0.687,0.637,0.325,73,63,53,61,23,0,33,41,42,0.000,4,0,82.158,2.060,-64.660,13.480,48.860,-0.465,0.084,-1.054,1.934,-0.710,1.544,0.000,0.000,0.156,0.320,2,2,0,3,7,255,1125,200,685,1125
stim,105359,105359,0,5422351.894,-0.125,-0.686,0.638,0.327,67,84,44,37,39,4,56,9,42,0.000,4,0,87.524,2.182,-69.300,16.280,50.920,-0.433,0.071,-1.002,2.030,-0.800,1.224,0.000,0.000,0.156,0.320,2,2,0,3,7,255,1125,200,690,1125
stim,105359,105359,0,5422356.894,-0.122,-0.685,0.639,0.328,53,78,75,33,33,0,67,10,42,0.000,4,0,91.122,2.182,-72.480,17.260,52.460,-0.436,0.085,-0.955,2.030,-0.800,0.600,0.000,0.000,0.156,0.320,2,2,0,3,7,255,1125,200,695,1125
stim,105359,105359,0,5422361.894,-0.119,-0.683,0.640,0.330,69,79,46,41,45,6,55,11,42,0.000,4,0,94.887,2.090,-75.960,17.140,54.220,-0.435,0.078,-0.941,2.000,-0.608,0.234,0.000,0.000,0.156,0.320,2,2,0,3,7,255,1125,200,700,1125
stim,105359,105359,0,5422366.895,-0.116,-0.682,0.642,0.331,63,85,53,39,45,5,59,17,42,0.000,4,0,99.771,2.040,-79.740,19.280,56.780,-0.456,0.090,-0.946,1.972,-0.522,0.226,0.000,0.000,0.156,0.320,2,2,0,3,7,255,1125,200,705,1125
stim,105359,105359,0,5422371.894,-0.112,-0.680,0.643,0.333,69,59,73,69,18,0,29,37,42,0.000,4,0,105.903,2.030,-83.580,22.880,60.880,-0.462,0.096,-0.961,2.000,-0.346,0.226,0.000,0.000,0.156,0.320,2,2,0,3,7,255,1125,200,710,1125
stim,105359,105359,0,5422376.894,-0.108,-0.679,0.645,0.335,53,69,76,41,25,0,59,40,42,0.000,4,0,113.084,2.077,-88.600,25.860,65.340,-0.476,0.105,-1.009,2.048,-0.346,0.382,0.000,0.000,0.156,0.320,2,2,0,3,7,255,1125,200,715,1125
stim,105359,105359,0,5422381.894,-0.104,-0.677,0.646,0.336,73,83,49,39,39,6,37,11,42,0.000,4,0,121.635,2.229,-95.360,29.280,69.600,-0.493,0.128,-1.051,2.200,-0.358,0.852,0.000,0.000,0.156,0.320,2,2,0,3,7,255,1125,200,720,1125
stim,105440,105440,0,5422389.695,-0.099,-0.675,0.648,0.338,47,53,81,39,51,16,71,35,42,0.000,4,0,130.946,2.258,-102.620,33.500,74.120,-0.491,0.146,-1.074,2.228,-0.364,1.316,0.000,0.000,0.156,0.320,2,2,0,3,7,255,1125,200,728,1125
stim,105440,105440,0,5422394.694,-0.094,-0.673,0.650,0.340,83,73,75,66,16,0,39,41,42,0.000,4,0,140.495,2.300,-110.500,36.920,78.520,-0.463,0.151,-1.083,2.258,-0.436,1.484,0.000,0.000,0.156,0.320,2,2,0,3,7,255,1125,200,733,1125
stim,105440,105440,0,5422399.694,-0.088,-0.671,0.651,0.342,83,92,54,37,38,2,41,18,42,0.000,4,0,150.819,2.452,-120.420,38.920,82.040,-0.451,0.173,-1.104,2.360,-0.666,1.534,0.000,0.000,0.156,0.320,2,2,0,3,7,255,1125,200,738,1125
stim,105440,105440,0,5422404.694,-0.082,-0.669,0.653,0.344,63,61,55,58,20,5,39,37,42,0.000,4,0,163.918,2.488,-132.320,43.380,86.480,-0.466,0.199,-1.137,2.366,-0.770,1.662,0.000,0.000,0.156,0.320,2,2,0,3,7,255,1125,200,743,1125
stim,105440,105440,0,5422409.695,-0.076,-0.667,0.655,0.347,48,83,71,37,45,0,67,12,42,0.000,4,0,179.760,2.520,-145.260,50.820,92.900,-0.461,0.206,-1.145,2.398,-0.776,2.052,0.000,0.000,0.156,0.320,2,2,0,3,7,255,1125,200,748,1125
stim,105440,105440,0,5422414.694,-0.068,-0.665,0.657,0.349,66,74,43,36,40,1,52,8,42,0.000,4,0,195.321,2.646,-158.140,57.180,99.360,-0.464,0.221,-1.145,2.532,-0.770,2.092,0.000,0.000,0.156,0.320,2,2,0,3,7,255,1125,200,753,1125
stim,105440,105440,0,5422419.695,-0.060,-0.662,0.659,0.352,72,83,47,39,41,3,59,16,42,0.000,4,0,209.479,2.639,-169.240,63.340,105.960,-0.467,0.237,-1.127,2.550,-0.678,2.092,0.000,0.000,0.156,0.320,2,2,0,3,7,255,1125,200,758,1125
stim,105440,105440,0,5422424.694,-0.052,-0.659,0.661,0.354,77,89,48,38,39,10,54,16,42,0.000,4,0,222.219,2.627,-178.840,68.760,112.560,-0.451,0.240,-1.113,2.576,-0.514,2.008,0.000,0.000,0.156,0.320,2,2,0,3,7,255,1125,200,763,1125
stim,105440,105440,0,5422429.694,-0.043,-0.656,0.663,0.357,68,56,45,59,13,0,35,33,42,0.000,4,0,232.558,2.711,-186.880,73.960,117.000,-0.431,0.234,-1.106,2.662,-0.514,1.794,0.000,0.000,0.156,0.320,2,2,0,3,7,255,1125,200,768,1125
stim,105440,105440,0,5422434.694,-0.034,-0.653,0.666,0.360,69,77,51,38,41,1,61,6,42,0.000,4,0,240.588,2.924,-192.680,79.640,120.060,-0.419,0.233,-1.073,2.880,-0.504,1.602,0.000,0.000,0.156,0.320,2,2,0,3,7,255,1125,200,773,1125
stim,105446,105446,0,5422439.694,-0.024,-0.650,0.668,0.362,45,59,76,55,29,0,69,31,42,0.000,4,0,245.657,2.913,-195.980,84.140,121.900,-0.392,0.232,-1.014,2.880,-0.436,1.228,0.000,0.000,0.156,0.320,2,2,0,3,7,255,1125,200,778,1125
stim,105455,105455,0,5422445.219,-0.014,-0.647,0.670,0.365,75,87,54,67,43,11,33,28,42,0.000,4,0,247.196,2.905,-196.900,86.580,121.820,-0.356,0.233,-0.956,2.874,-0.422,0.596,0.000,0.000,0.156,0.320,2,2,0,3,7,255,1125,200,783,1125
stim,105455,105455,0,5422450.219,-0.005,-0.644,0.671,0.367,76,79,47,55,13,2,37,19,42,0.000,4,0,244.822,2.905,-196.880,87.680,116.140,-0.301,0.210,-0.929,2.874,-0.422,-0.032,0.000,0.000,0.156,0.320,2,2,0,3,7,255,1125,200,788,1125
stim,105471,105471,0,5422455.219,0.005,-0.641,0.673,0.369,45,79,77,37,40,0,57,16,42,0.000,4,0,243.704,2.795,-197.740,92.200,108.580,-0.305,0.276,-0.861,2.758,-0.456,-0.584,0.000,0.000,0.156,0.320,2,2,0,3,7,255,1125,200,793,1125
stim,105471,105471,0,5422460.219,0.015,-0.638,0.674,0.372,64,79,48,37,40,5,57,10,42,0.000,4,0,240.133,2.358,-193.840,83.900,114.240,-0.244,0.317,-0.794,2.242,-0.730,-0.828,0.000,0.000,0.156,0.320,2,2,0,3,7,255,1125,200,798,1125
stim,105471,105471,0,5422465.219,0.024,-0.635,0.676,0.374,75,77,55,41,40,6,57,8,42,0.000,4,0,234.322,1.917,-190.840,77.380,111.800,-0.236,0.326,-0.794,1.750,-0.782,-1.362,0.000,0.000,0.156,0.320,2,2,0,3,7,255,1125,200,803,1125
stim,105471,105471,0,5422470.219,0.032,-0.631,0.677,0.377,62,80,48,39,37,8,52,11,42,0.000,4,0,229.075,1.850,-188.400,71.320,109.060,-0.210,0.361,-0.797,1.676,-0.784,-1.362,0.000,0.000,0.156,0.320,2,2,0,3,7,255,1125,200,808,1125
stim,105471,105471,0,5422475.220,0.041,-0.628,0.678,0.379,77,87,47,33,40,0,52,11,42,0.000,4,0,221.452,1.885,-183.460,65.280,105.460,-0.203,0.392,-0.792,1.606,-0.986,-1.248,0.000,0.000,0.156,0.320,2,2,0,3,7,255,1125,200,813,1125
stim,105471,105471,0,5422480.219,0.049,-0.625,0.680,0.382,72,85,56,40,47,5,57,11,42,0.000,4,0,215.805,1.777,-180.220,58.880,103.080,-0.206,0.406,-0.781,1.478,-0.986,-1.176,0.000,0.000,0.156,0.320,2,2,0,3,7,255,1125,200,818,1125
stim,105471,105471,0,5422485.219,0.057,-0.621,0.681,0.385,43,53,75,37,44,0,69,27,42,0.000,4,0,212.971,1.722,-178.880,52.160,103.140,-0.224,0.428,-0.798,1.478,-0.884,-1.160,0.000,0.000,0.156,0.320,2,2,0,3,7,255,1125,200,823,1125
stim,105535,105535,0,5422490.314,0.065,-0.617,0.682,0.387,59,70,79,40,17,0,59,39,42,0.000,4,0,214.589,1.720,-180.960,48.200,104.780,-0.209,0.421,-0.795,1.540,-0.766,-1.020,0.000,0.000,0.156,0.320,2,2,0,3,7,255,1125,200,828,1125
stim,105535,105535,0,5422495.314,0.073,-0.613,0.683,0.390,86,74,55,63,12,0,33,41,42,0.000,4,0,218.825,1.749,-185.220,45.440,107.300,-0.217,0.461,-0.800,1.602,-0.702,-0.898,0.000,0.000,0.156,0.320,2,2,0,3,7,255,1125,200,833,1125
stim,105535,105535,0,5422500.314,0.081,-0.609,0.684,0.393,55,72,69,39,44,6,51,13,42,0.000,4,0,222.547,1.750,-188.440,44.340,109.780,-0.208,0.484,-0.800,1.602,-0.704,-0.752,0.000,0.000,0.156,0.320,2,2,0,3,7,255,1125,200,838,1125
stim,105535,105535,0,5422505.314,0.089,-0.605,0.685,0.396,50,87,74,39,43,7,67,15,42,0.000,4,0,226.644,1.737,-191.440,44.100,113.020,-0.191,0.491,-0.782,1.588,-0.704,-0.752,0.000,0.000,0.156,0.320,2,2,0,3,7,255,1125,200,843,1125
stim,105535,105535,0,5422510.314,0.097,-0.600,0.686,0.400,39,67,75,29,30,0,60,28,42,0.000,4,0,229.125,1.742,-193.580,43.180,114.720,-0.163,0.499,-0.746,1.566,-0.764,-0.800,0.000,0.000,0.156,0.320,2,2,0,3,7,255,1125,200,848,1125
stim,105535,105535,0,5422515.314,0.105,-0.596,0.687,0.403,73,83,47,33,35,4,47,10,42,0.000,4,0,229.803,1.667,-194.660,40.680,115.160,-0.140,0.512,-0.710,1.412,-0.886,-1.088,0.000,0.000,0.156,0.320,2,2,0,3,7,255,1125,200,853,1125
stim,105535,105535,0,5422520.314,0.113,-0.591,0.688,0.406,75,83,52,37,43,5,57,9,42,0.000,4,0,227.948,1.549,-192.900,39.520,114.840,-0.111,0.522,-0.671,1.208,-0.970,-1.314,0.000,0.000,0.156,0.320,2,2,0,3,7,255,1125,200,858,1125
stim,105535,105535,0,5422525.314,0.121,-0.586,0.689,0.409,61,88,52,39,41,1,59,18,42,0.000,4,0,223.089,1.488,-188.620,38.540,112.720,-0.089,0.521,-0.623,0.996,-1.106,-1.578,0.000,0.000,0.156,0.320,2,2,0,3,7,255,1125,200,863,1125
stim,105535,105535,0,5422530.314,0.129,-0.582,0.689,0.412,63,58,67,57,21,0,33,41,42,0.000,4,0,216.008,1.404,-182.460,37.700,109.300,-0.069,0.529,-0.578,0.788,-1.162,-1.962,0.000,0.000,0.156,0.320,2,2,0,3,7,255,1125,200,868,1125
stim,105535,105535,0,5422535.314,0.136,-0.578,0.690,0.414,61,78,53,33,35,3,57,19,42,0.000,4,0,206.455,1.314,-173.240,38.980,105.320,-0.034,0.525,-0.555,0.530,-1.202,-2.246,0.000,0.000,0.156,0.320,2,2,0,3,7,255,1125,200,873,1125
stim,105535,105535,0,5422540.314,0.143,-0.574,0.691,0.416,70,63,83,63,22,0,46,43,42,0.000,4,0,193.773,1.524,-160.920,42.940,99.040,-0.007,0.520,-0.520,0.474,-1.448,-2.484,0.000,0.000,0.156,0.320,2,2,0,3,7,255,1125,200,878,1125
stim,105551,105551,0,5422545.387,0.150,-0.570,0.691,0.418,61,48,75,59,18,0,42,37,42,0.000,4,0,179.495,1.567,-147.800,44.900,91.420,0.006,0.539,-0.454,0.328,-1.532,-2.784,0.000,0.000,0.156,0.320,2,2,0,3,7,255,1125,200,883,1125
stim,105551,105551,0,5422550.387,0.156,-0.567,0.692,0.420,87,92,55,60,14,0,31,40,42,0.000,4,0,166.228,1.544,-136.480,41.000,85.580,0.010,0.564,-0.411,-0.190,-1.532,-3.078,0.000,0.000,0.156,0.320,2,2,0,3,7,255,1125,200,888,1125
stim,105551,105551,0,5422555.387,0.161,-0.563,0.692,0.421,51,67,75,56,21,0,40,39,42,0.000,4,0,155.431,1.557,-128.360,33.920,80.820,0.007,0.587,-0.401,-0.588,-1.442,-3.078,0.000,0.000,0.156,0.320,2,2,0,3,7,255,1125,200,893,1125
stim,105551,105551,0,5422560.387,0.166,-0.560,0.693,0.423,72,88,48,45,43,0,55,13,42,0.000,4,0,145.268,1.524,-120.000,27.200,77.220,0.003,0.628,-0.426,-0.704,-1.352,-3.024,0.000,0.000,0.156,0.320,2,2,0,3,7,255,1125,200,898,1125
stim,105551,105551,0,5422565.387,0.171,-0.557,0.693,0.424,71,84,48,37,33,7,55,13,42,0.000,4,0,136.977,1.503,-112.180,23.840,74.900,-0.006,0.627,-0.458,-0.704,-1.328,-2.544,0.000,0.000,0.156,0.320,2,2,0,3,7,255,1125,200,903,1125
stim,105551,105551,0,5422570.387,0.175,-0.554,0.694,0.426,71,76,48,39,39,4,57,16,42,0.000,4,0,131.169,1.309,-105.960,23.240,73.740,-0.025,0.621,-0.469,-0.356,-1.260,-2.338,0.000,0.000,0.156,0.320,2,2,0,3,7,255,1125,200,908,1125
stim,105568,105568,0,5422575.388,0.180,-0.551,0.694,0.427,71,76,55,37,39,1,47,7,42,0.000,4,0,129.297,1.077,-104.060,21.040,73.800,-0.026,0.613,-0.482,-0.138,-1.068,-2.298,0.000,0.000,0.156,0.320,2,2,0,3,7,255,1125,200,913,1125
stim,105568,105568,0,5422580.387,0.184,-0.548,0.695,0.428,72,79,57,58,33,6,45,16,42,0.000,4,0,128.214,1.048,-102.900,18.960,74.100,-0.047,0.639,-0.516,0.086,-1.044,-2.278,0.000,0.000,0.156,0.320,2,2,0,3,7,255,1125,200,918,1125
stim,105568,105568,0,5422585.387,0.188,-0.545,0.695,0.430,45,87,73,35,45,0,59,16,42,0.000,4,0,127.942,0.955,-101.680,18.900,75.320,-0.042,0.640,-0.529,0.308,-0.904,-1.860,0.000,0.000,0.156,0.320,2,2,0,3,7,255,1125,200,923,1125
stim,105631,105631,0,5422590.443,0.192,-0.541,0.696,0.431,58,64,76,47,22,0,46,55,42,0.000,4,0,128.593,1.020,-100.760,19.820,77.400,-0.037,0.644,-0.542,0.472,-0.904,-1.780,0.000,0.000,0.156,0.320,2,2,0,3,7,255,1125,200,928,1125
stim,105631,105631,0,5422595.443,0.197,-0.538,0.697,0.432,68,66,54,62,20,0,38,37,42,0.000,4,0,129.427,1.126,-100.040,21.840,79.160,-0.032,0.634,-0.539,0.620,-0.940,-1.780,0.000,0.000,0.156,0.320,2,2,0,3,7,255,1125,200,933,1125
stim,105631,105631,0,5422600.444,0.201,-0.535,0.697,0.433,87,77,55,69,25,31,41,26,42,0.000,4,0,131.095,1.185,-100.800,22.500,80.740,-0.026,0.628,-0.527,0.722,-0.940,-1.790,0.000,0.000,0.156,0.320,2,2,0,3,7,255,1125,200,938,1125
stim,105631,105631,0,5422605.443,0.206,-0.531,0.698,0.434,44,56,73,56,17,0,41,39,42,0.000,4,0,132.371,1.184,-101.400,21.760,82.260,-0.040,0.642,-0.521,0.722,-0.938,-1.832,0.000,0.000,0.156,0.320,2,2,0,3,7,255,1125,200,943,1125
stim,105631,105631,0,5422610.443,0.210,-0.528,0.699,0.435,45,85,72,27,39,5,59,20,42,0.000,4,0,132.647,1.030,-100.440,21.160,84.020,-0.035,0.637,-0.503,0.708,-0.748,-1.914,0.000,0.000,0.156,0.320,2,2,0,3,7,255,1125,200,948,1125
stim,105647,105647,0,5422615.443,0.214,-0.525,0.699,0.436,72,85,53,37,33,3,55,8,42,0.000,4,0,131.962,0.980,-98.480,19.620,85.620,-0.027,0.636,-0.479,0.660,-0.724,-1.978,0.000,0.000,0.156,0.320,2,2,0,3,7,255,1125,200,953,1125
stim,105647,105647,0,5422620.443,0.218,-0.521,0.700,0.436,63,83,51,43,39,6,53,16,42,0.000,4,0,129.437,0.897,-94.940,17.800,86.160,-0.011,0.636,-0.458,0.530,-0.724,-2.120,0.000,0.000,0.156,0.320,2,2,0,3,7,255,1125,200,958,1125
stim,105647,105647,0,5422625.443,0.222,-0.518,0.701,0.437,73,80,47,36,41,4,56,13,42,0.000,4,0,125.001,0.890,-89.560,15.900,85.740,0.014,0.643,-0.447,0.398,-0.796,-2.242,0.000,0.000,0.156,0.320,2,2,0,3,7,255,1125,200,963,1125
stim,105647,105647,0,5422630.443,0.226,-0.514,0.702,0.438,69,83,51,40,43,5,55,5,42,0.000,4,0,118.497,1.017,-82.180,14.440,84.140,0.033,0.652,-0.442,0.298,-0.972,-2.242,0.000,0.000,0.156,0.320,2,2,0,3,7,255,1125,200,968,1125
stim,105647,105647,0,5422635.444,0.229,-0.511,0.703,0.438,39,75,71,37,39,0,62,14,42,0.000,4,0,112.861,1.124,-75.220,14.620,82.860,0.045,0.663,-0.423,0.240,-1.098,-2.208,0.000,0.000,0.156,0.320,2,2,0,3,7,255,1125,200,973,1125
stim,105647,105647,0,5422640.443,0.233,-0.508,0.704,0.438,68,79,49,47,43,7,38,9,42,0.000,4,0,107.852,1.130,-68.700,13.960,81.960,0.060,0.675,-0.424,0.062,-1.128,-2.204,0.000,0.000,0.156,0.320,2,2,0,3,7,255,1125,200,978,1125
stim,105663,105663,0,5422646.302,0.236,-0.505,0.705,0.438,73,84,44,48,39,2,31,11,42,0.000,4,0,102.627,1.218,-62.280,13.640,80.420,0.063,0.682,-0.454,0.062,-1.216,-2.106,0.000,0.000,0.156,0.320,2,2,0,3,7,255,1125,200,984,1125
stim,105663,105663,0,5422651.300,0.238,-0.502,0.706,0.438,45,55,73,55,19,14,56,41,42,0.000,4,0,98.176,1.266,-56.480,15.360,78.820,0.063,0.688,-0.469,0.282,-1.234,-1.892,0.000,0.000,0.156,0.320,2,2,0,3,7,255,1125,200,989,1125
stim,105663,105663,0,5422656.300,0.241,-0.499,0.708,0.438,67,55,53,55,17,0,28,43,42,0.000,4,0,93.951,1.322,-50.680,16.640,77.340,0.074,0.695,-0.474,0.426,-1.252,-1.770,0.000,0.000,0.156,0.320,2,2,0,3,7,255,1125,200,994,1125
stim,105663,105663,0,5422661.300,0.244,-0.497,0.709,0.437,51,87,54,39,37,4,57,13,42,0.000,4,0,90.469,1.364,-45.420,17.320,76.300,0.081,0.692,-0.472,0.450,-1.288,-1.714,0.000,0.000,0.156,0.320,2,2,0,3,7,255,1125,200,999,1125
stim,105663,105663,0,5422666.300,0.246,-0.494,0.710,0.437,64,84,54,39,39,5,48,12,42,0.000,4,0,87.939,1.389,-41.760,17.440,75.400,0.099,0.693,-0.451,0.450,-1.314,-1.714,0.000,0.000,0.156,0.320,2,2,0,3,7,255,1125,200,1004,1125
stim,105679,105679,0,5422671.300,0.249,-0.492,0.711,0.436,76,89,53,39,41,1,52,8,42,0.000,4,0,85.956,1.431,-40.180,14.760,74.540,0.120,0.697,-0.431,0.294,-1.400,-1.800,0.000,0.000,0.156,0.320,2,2,0,3,7,255,1125,200,1009,1125
stim,105679,105679,0,5422676.300,0.251,-0.490,0.712,0.436,62,83,51,33,40,0,57,9,42,0.000,4,0,83.504,1.527,-39.380,11.700,72.700,0.129,0.697,-0.428,0.098,-1.524,-1.848,0.000,0.000,0.156,0.320,2,2,0,3,7,255,1125,200,1014,1125
stim,105679,105679,0,5422681.300,0.253,-0.487,0.713,0.435,83,73,54,60,35,0,39,53,42,0.000,4,0,81.103,1.527,-37.480,10.720,71.120,0.132,0.701,-0.410,0.090,-1.524,-1.858,0.000,0.000,0.156,0.320,2,2,0,3,7,255,1125,200,1019,1125
stim,105679,105679,0,5422686.300,0.255,-0.485,0.715,0.435,45,48,77,52,19,0,45,37,42,0.000,4,0,79.533,1.519,-34.680,9.940,70.880,0.123,0.698,-0.396,-0.062,-1.518,-1.904,0.000,0.000,0.156,0.320,2,2,0,3,7,255,1125,200,1024,1125
stim,105727,105727,1,5422691.770,0.257,-0.482,0.716,0.434,62,76,46,34,43,8,40,10,42,0.000,4,0,78.662,1.367,-31.640,9.260,71.420,0.122,0.692,-0.396,-0.062,-1.366,-2.000,0.000,0.000,0.156,0.320,2,2,1,3,7,255,1125,200,1030,1125
stim,105727,105727,1,5422696.769,0.259,-0.480,0.717,0.433,76,91,54,43,39,0,67,0,42,0.000,4,0,79.518,1.367,-31.320,8.100,72.640,0.146,0.680,-0.424,-0.060,-1.366,-2.000,0.000,0.000,0.156,0.320,2,2,1,3,7,255,1125,200,1035,1125
stim,105727,105727,1,5422701.770,0.261,-0.478,0.719,0.433,59,84,51,45,37,1,55,9,42,0.000,4,0,80.924,1.601,-32.980,8.220,73.440,0.154,0.710,-0.454,0.206,-1.588,-1.992,0.000,0.000,0.156,0.320,2,2,1,3,7,255,1125,200,1040,1125
stim,105727,105727,1,5422706.769,0.263,-0.475,0.720,0.432,73,89,45,48,33,2,33,11,42,0.000,4,0,79.337,1.656,-34.860,9.880,70.580,0.172,0.713,-0.484,0.332,-1.622,-1.584,0.000,0.000,0.156,0.320,2,2,1,3,7,255,1125,200,1045,1125
stim,105727,105727,1,5422711.769,0.265,-0.473,0.721,0.432,38,55,75,29,21,0,58,31,42,0.000,4,0,81.441,1.656,-36.880,11.220,71.740,0.166,0.792,-0.462,0.332,-1.622,-1.404,0.000,0.000,0.156,0.320,2,2,1,3,7,255,1125,200,1050,1125
stim,105727,105727,1,5422716.769,0.267,-0.470,0.722,0.431,71,80,45,43,39,3,47,11,42,0.000,4,0,85.932,1.752,-36.200,5.780,77.720,0.191,0.766,-0.457,0.120,-1.748,-1.056,0.000,0.000,0.156,0.320,2,2,1,3,7,255,1125,200,1055,1125
stim,105744,105744,1,5422721.769,0.269,-0.467,0.724,0.431,81,90,46,37,33,2,59,11,42,0.000,4,0,84.253,1.682,-36.640,5.060,75.700,0.187,0.775,-0.474,0.120,-1.678,-0.888,0.000,0.000,0.156,0.320,2,2,1,3,7,255,1125,200,1060,1125
stim,105744,105744,1,5422726.769,0.271,-0.465,0.725,0.430,85,92,53,35,43,0,53,9,42,0.000,4,0,83.503,1.768,-36.020,4.500,75.200,0.204,0.772,-0.477,0.268,-1.748,-0.888,0.000,0.000,0.156,0.320,2,2,1,3,7,255,1125,200,1065,1125
stim,105744,105744,1,5422731.769,0.273,-0.462,0.726,0.430,69,87,47,30,37,5,56,7,42,0.000,4,0,82.462,1.699,-34.020,3.820,75.020,0.187,0.782,-0.461,0.268,-1.678,-0.884,0.000,0.000,0.156,0.320,2,2,1,3,7,255,1125,200,1070,1125
stim,105744,105744,1,5422736.769,0.275,-0.459,0.727,0.429,43,73,64,29,41,0,57,17,42,0.000,4,0,81.780,1.558,-31.880,2.120,75.280,0.192,0.788,-0.446,0.192,-1.546,-0.884,0.000,0.000,0.156,0.320,2,2,1,3,7,255,1125,200,1075,1125
stim,105744,105744,1,5422741.769,0.277,-0.457,0.729,0.428,72,81,58,62,22,0,33,41,42,0.000,4,0,80.289,1.548,-29.060,-0.880,74.840,0.216,0.792,-0.455,0.082,-1.546,-0.882,0.000,0.000,0.156,0.320,2,2,1,3,7,255,1125,200,1080,1125
stim,105759,105759,1,5422746.854,0.278,-0.454,0.730,0.428,73,78,51,62,25,0,48,39,42,0.000,4,0,77.492,1.702,-25.340,-2.160,73.200,0.222,0.801,-0.464,0.082,-1.700,-0.778,0.000,0.000,0.156,0.320,2,2,1,3,7,255,1125,200,1085,1125
stim,105759,105759,1,5422751.854,0.279,-0.452,0.732,0.427,76,71,57,56,21,0,37,42,42,0.000,4,0,75.025,1.713,-22.340,-2.440,71.580,0.226,0.805,-0.474,0.132,-1.708,-0.656,0.000,0.000,0.156,0.320,2,2,1,3,7,255,1125,200,1090,1125
stim,105759,105759,1,5422756.854,0.281,-0.449,0.733,0.426,77,80,45,57,39,6,33,23,42,0.000,4,0,72.256,1.721,-19.040,-1.780,69.680,0.225,0.810,-0.479,0.208,-1.708,-0.568,0.000,0.000,0.156,0.320,2,2,1,3,7,255,1125,200,1095,1125
stim,105759,105759,1,5422761.854,0.282,-0.447,0.735,0.425,45,59,77,39,40,0,60,30,42,0.000,4,0,70.357,1.671,-15.680,-0.980,68.580,0.227,0.814,-0.475,0.210,-1.658,-0.496,0.000,0.000,0.156,0.320,2,2,1,3,7,255,1125,200,1100,1125
stim,105759,105759,1,5422766.854,0.283,-0.445,0.736,0.424,74,85,46,42,33,2,48,12,42,0.000,4,0,68.964,1.677,-13.540,-0.440,67.620,0.241,0.797,-0.474,0.250,-1.658,-0.496,0.000,0.000,0.156,0.320,2,2,1,3,7,255,1125,200,1105,1125
stim,105759,105759,1,5422771.854,0.284,-0.443,0.737,0.423,69,77,55,39,36,1,53,9,42,0.000,4,0,66.871,1.653,-12.020,0.540,65.780,0.237,0.811,-0.479,0.250,-1.634,-0.468,0.000,0.000,0.156,0.320,2,2,1,3,7,255,1125,200,1110,1125
stim,105759,105759,1,5422776.854,0.285,-0.441,0.739,0.422,64,81,51,33,39,8,53,16,42,0.000,4,0,65.761,1.694,-11.040,1.880,64.800,0.243,0.800,-0.480,0.260,-1.674,-0.526,0.000,0.000,0.156,0.320,2,2,1,3,7,255,1125,200,1115,1125
stim,105759,105759,1,5422781.854,0.286,-0.439,0.740,0.421,71,67,55,61,14,0,40,43,42,0.000,4,0,65.045,1.657,-11.040,3.220,64.020,0.239,0.812,-0.479,0.274,-1.634,-0.460,0.000,0.000,0.156,0.320,2,2,1,3,7,255,1125,200,1120,1125
stim,105759,105759,1,5422786.854,0.288,-0.437,0.741,0.420,49,79,64,35,41,0,59,9,42,0.000,4,0,63.895,1.584,-10.320,4.140,62.920,0.227,0.813,-0.466,0.274,-1.560,-0.494,0.000,0.000,0.156,0.320,2,2,1,3,7,255,1125,200,0,1125
stim,105839,105839,1,5422791.919,0.289,-0.435,0.743,0.419,57,70,58,37,41,6,48,17,42,0.000,4,0,63.504,1.391,-9.400,4.260,62.660,0.223,0.805,-0.449,0.206,-1.376,-0.494,0.000,0.000,0.156,0.320,2,2,1,3,7,255,1125,200,5,1125
stim,105839,105839,1,5422796.919,0.290,-0.433,0.744,0.418,70,79,45,39,45,2,53,21,42,0.000,4,0,63.092,1.292,-7.260,4.080,62.540,0.209,0.803,-0.446,0.146,-1.284,-0.642,0.000,0.000,0.156,0.320,2,2,1,3,7,255,1125,200,10,1125
stim,105839,105839,1,5422801.920,0.291,-0.432,0.745,0.417,85,90,71,70,13,0,30,40,42,0.000,4,0,63.109,1.127,-4.500,3.340,62.860,0.198,0.812,-0.450,0.146,-1.118,-0.642,0.000,0.000,0.156,0.320,2,2,1,3,7,255,1125,200,15,1125
stim,105839,105839,1,5422806.919,0.292,-0.430,0.747,0.416,49,59,83,37,23,0,60,36,42,0.000,4,0,63.597,0.970,-2.860,1.260,63.520,0.203,0.823,-0.465,0.186,-0.952,-0.616,0.000,0.000,0.156,0.320,2,2,1,3,7,255,1125,200,20,1125
stim,105839,105839,1,5422811.919,0.292,-0.428,0.748,0.414,43,59,75,27,20,0,57,31,42,0.000,4,0,64.518,0.991,-2.660,-1.740,64.440,0.211,0.836,-0.481,0.274,-0.952,-0.446,0.000,0.000,0.156,0.320,2,2,1,3,7,255,1125,200,25,1125
stim,105856,105856,1,5422816.919,0.293,-0.426,0.750,0.413,75,84,51,40,34,8,51,19,42,0.000,4,0,65.359,1.031,-4.020,-4.780,65.060,0.240,0.855,-0.500,0.344,-0.972,-0.244,0.000,0.000,0.156,0.320,2,2,1,3,7,255,1125,200,30,1125
stim,105856,105856,1,5422821.919,0.294,-0.424,0.751,0.412,71,83,51,44,39,4,57,11,42,0.000,4,0,65.392,1.214,-5.240,-7.400,64.760,0.259,0.885,-0.511,0.344,-1.164,0.052,0.000,0.000,0.156,0.320,2,2,1,3,7,255,1125,200,35,1125
stim,105856,105856,1,5422826.919,0.294,-0.422,0.753,0.411,50,87,75,35,41,1,61,21,42,0.000,4,0,65.260,1.260,-5.840,-8.940,64.380,0.278,0.896,-0.510,0.290,-1.226,0.398,0.000,0.000,0.156,0.320,2,2,1,3,7,255,1125,200,40,1125
stim,105856,105856,1,5422831.919,0.295,-0.419,0.754,0.410,45,57,76,31,24,0,62,38,42,0.000,4,0,64.879,1.342,-7.740,-10.220,63.600,0.307,0.892,-0.507,0.194,-1.328,0.522,0.000,0.000,0.156,0.320,2,2,1,3,7,255,1125,200,45,1125
stim,105856,105856,1,5422836.919,0.296,-0.417,0.756,0.410,76,83,49,67,13,0,37,18,42,0.000,4,0,63.698,1.556,-9.880,-10.760,62.000,0.321,0.908,-0.514,0.110,-1.552,0.542,0.000,0.000,0.156,0.320,2,2,1,3,7,255,1125,200,50,1125
stim,105856,105856,1,5422841.919,0.296,-0.415,0.757,0.409,43,55,75,39,40,8,68,10,42,0.000,4,0,61.721,1.578,-10.180,-9.180,60.180,0.325,0.914,-0.514,0.078,-1.576,0.742,0.000,0.000,0.156,0.320,2,2,1,3,7,255,1125,200,55,1125
stim,105871,105871,1,5422846.968,0.297,-0.413,0.758,0.408,77,87,51,61,17,8,37,41,42,0.000,4,0,59.583,1.577,-9.940,-7.400,58.280,0.331,0.917,-0.500,0.052,-1.576,0.780,0.000,0.000,0.156,0.320,2,2,1,3,7,255,1125,200,60,1125
stim,105871,105871,1,5422851.968,0.297,-0.411,0.759,0.407,77,85,55,57,34,9,36,23,42,0.000,4,0,56.923,1.556,-8.900,-7.040,55.780,0.333,0.919,-0.487,-0.084,-1.554,0.780,0.000,0.000,0.156,0.320,2,2,1,3,7,255,1125,200,65,1125
stim,105871,105871,1,5422856.968,0.298,-0.409,0.761,0.406,71,87,57,37,38,12,59,18,42,0.000,4,0,54.190,1.499,-8.000,-7.280,53.100,0.332,0.910,-0.488,-0.146,-1.492,0.754,0.000,0.000,0.156,0.320,2,2,1,3,7,255,1125,200,70,1125
stim,105871,105871,1,5422861.969,0.299,-0.408,0.762,0.406,44,75,75,41,39,0,61,17,42,0.000,4,0,51.701,1.489,-7.320,-7.280,50.660,0.318,0.910,-0.500,-0.146,-1.482,0.702,0.000,0.000,0.156,0.320,2,2,1,3,7,255,1125,200,75,1125
stim,105871,105871,1,5422866.968,0.299,-0.406,0.763,0.405,71,77,47,31,40,7,58,16,42,0.000,4,0,49.747,1.342,-6.040,-5.940,49.020,0.307,0.909,-0.496,0.000,-1.342,0.680,0.000,0.000,0.156,0.320,2,2,1,3,7,255,1125,200,80,1125
stim,105871,105871,1,5422871.968,0.300,-0.404,0.764,0.404,69,77,51,35,33,4,57,9,42,0.000,4,0,48.323,1.196,-5.180,-4.840,47.800,0.304,0.907,-0.497,0.016,-1.196,0.654,0.000,0.000,0.156,0.320,2,2,1,3,7,255,1125,200,85,1125
stim,105871,105871,1,5422876.968,0.300,-0.403,0.765,0.403,75,85,49,40,35,4,50,10,42,0.000,4,0,46.937,1.149,-4.580,-4.240,46.520,0.301,0.910,-0.496,0.040,-1.148,0.652,0.000,0.000,0.156,0.320,2,2,1,3,7,255,1125,200,90,1125
stim,105887,105887,1,5422881.969,0.300,-0.401,0.766,0.402,77,84,51,61,41,9,38,20,42,0.000,4,0,45.777,1.069,-3.360,-3.980,45.480,0.295,0.909,-0.492,0.040,-1.068,0.640,0.000,0.000,0.156,0.320,2,2,1,3,7,255,1125,200,95,1125
stim,105887,105887,0,5422886.968,0.301,-0.400,0.767,0.402,43,74,71,35,41,0,58,11,42,0.000,4,0,44.368,0.979,-2.200,-3.920,44.140,0.288,0.904,-0.490,0.040,-0.978,0.616,0.000,0.000,0.156,0.320,2,2,0,3,7,255,1125,200,100,1125
stim,105935,105935,0,5422892.007,0.301,-0.399,0.768,0.401,82,89,56,61,43,12,43,24,42,0.000,4,0,42.629,0.896,-0.920,-3.440,42.480,0.280,0.898,-0.496,0.058,-0.894,0.554,0.000,0.000,0.156,0.320,2,2,0,3,7,255,1125,200,105,1125
stim,105935,105935,0,5422897.006,0.302,-0.397,0.769,0.400,72,86,51,43,41,9,37,13,42,0.000,4,0,41.679,0.833,0.500,-2.160,41.620,0.266,0.895,-0.496,0.158,-0.818,0.510,0.000,0.000,0.156,0.320,2,2,0,3,7,255,1125,200,110,1125
stim,105935,105935,0,5422902.006,0.302,-0.396,0.770,0.399,59,91,71,39,33,5,69,12,42,0.000,4,0,42.074,0.692,1.440,-0.880,42.040,0.259,0.902,-0.482,0.158,-0.674,0.450,0.000,0.000,0.156,0.320,2,2,0,3,7,255,1125,200,115,1125
stim,105935,105935,0,5422907.006,0.302,-0.395,0.771,0.398,46,88,43,39,33,1,56,10,42,0.000,4,0,42.898,0.640,2.540,-0.460,42.820,0.275,0.905,-0.484,0.102,-0.632,0.450,0.000,0.000,0.156,0.320,2,2,0,3,7,255,1125,200,120,1125
stim,105935,105935,0,5422912.006,0.303,-0.394,0.772,0.397,61,81,57,35,41,3,53,9,42,0.000,4,0,42.463,0.635,3.940,0.100,42.280,0.305,0.909,-0.496,0.060,-0.632,0.506,0.000,0.000,0.156,0.320,2,2,0,3,7,255,1125,200,125,1125
stim,105935,105935,0,5422917.006,0.303,-0.393,0.773,0.396,69,81,53,35,39,4,56,13,42,0.000,4,0,40.739,0.869,5.400,-0.020,40.380,0.327,0.914,-0.505,0.048,-0.868,0.670,0.000,0.000,0.156,0.320,2,2,0,3,7,255,1125,200,130,1125
stim,105935,105935,0,5422922.006,0.303,-0.392,0.774,0.395,73,77,53,35,41,6,61,20,42,0.000,4,0,38.388,1.025,5.900,-1.980,37.880,0.340,0.917,-0.504,0.040,-1.024,0.808,0.000,0.000,0.156,0.320,2,2,0,3,7,255,1125,200,135,1125
stim,105935,105935,0,5422927.006,0.303,-0.391,0.775,0.394,63,77,55,39,41,9,56,9,42,0.000,4,0,36.010,1.092,3.640,-6.000,35.320,0.361,0.912,-0.505,-0.030,-1.092,0.864,0.000,0.000,0.156,0.320,2,2,0,3,7,255,1125,200,140,1125
stim,105935,105935,0,5422932.006,0.303,-0.390,0.775,0.393,73,79,48,57,33,6,35,22,42,0.000,4,0,33.706,1.280,1.200,-10.640,31.960,0.380,0.936,-0.519,-0.074,-1.278,0.878,0.000,0.000,0.156,0.320,2,2,0,3,7,255,1125,200,145,1125
stim,105935,105935,0,5422937.006,0.303,-0.389,0.776,0.393,67,57,54,59,20,0,31,39,42,0.000,4,0,31.690,1.360,-0.640,-15.840,27.440,0.397,0.933,-0.528,-0.080,-1.358,1.190,0.000,0.000,0.156,0.320,2,2,0,3,7,255,1125,200,150,1125
stim,105951,105951,0,5422942.006,0.303,-0.388,0.777,0.393,63,69,77,63,19,0,43,36,42,0.000,4,0,30.925,1.360,-3.500,-20.100,23.240,0.383,0.958,-0.550,-0.080,-1.358,1.250,0.000,0.000,0.156,0.320,2,2,0,3,7,255,1125,200,155,1125
stim,105951,105951,0,5422946.562,0.302,-0.386,0.778,0.393,75,80,46,57,41,9,43,19,42,0.000,4,0,31.093,1.323,-6.440,-22.920,20.000,0.367,0.960,-0.585,0.058,-1.322,1.530,0.000,0.000,0.156,0.320,2,2,0,3,7,255,1125,200,160,1125
stim,105951,105951,0,5422951.562,0.302,-0.385,0.778,0.393,71,85,45,51,17,0,37,33,42,0.000,4,0,30.999,1.295,-9.680,-23.700,17.480,0.341,0.950,-0.607,0.398,-1.232,1.602,0.000,0.000,0.156,0.320,2,2,0,3,7,255,1125,200,165,1125
stim,105951,105951,0,5422956.562,0.301,-0.384,0.779,0.394,69,83,55,39,39,7,55,16,42,0.000,4,0,31.301,1.295,-12.780,-23.700,15.960,0.307,0.948,-0.603,0.714,-1.080,1.602,0.000,0.000,0.156,0.320,2,2,0,3,7,255,1125,200,170,1125
stim,105951,105951,0,5422961.562,0.301,-0.383,0.779,0.394,47,82,72,41,40,0,61,12,42,0.000,4,0,32.437,1.113,-15.720,-23.580,15.780,0.283,0.931,-0.591,0.792,-0.782,1.474,0.000,0.000,0.156,0.320,2,2,0,3,7,255,1125,200,175,1125
stim,105951,105951,0,5422966.562,0.301,-0.382,0.780,0.395,71,83,47,39,35,4,52,9,42,0.000,4,0,33.580,1.020,-18.640,-22.360,16.740,0.266,0.913,-0.574,0.818,-0.610,1.220,0.000,0.000,0.156,0.320,2,2,0,3,7,255,1125,200,180,1125
stim,105967,105967,0,5422971.562,0.300,-0.381,0.780,0.395,73,85,52,40,39,2,56,10,42,0.000,4,0,34.302,0.957,-21.260,-19.980,18.040,0.260,0.898,-0.556,0.818,-0.496,0.946,0.000,0.000,0.156,0.320,2,2,0,3,7,255,1125,200,185,1125
stim,105967,105967,0,5422976.562,0.300,-0.379,0.781,0.396,72,82,46,37,33,0,53,10,42,0.000,4,0,34.207,0.881,-22.860,-16.860,19.060,0.250,0.886,-0.537,0.744,-0.472,0.724,0.000,0.000,0.156,0.320,2,2,0,3,7,255,1125,200,190,1125
stim,105967,105967,0,5422981.562,0.300,-0.378,0.781,0.396,71,93,57,40,41,13,39,18,42,0.000,4,0,34.051,0.777,-23.840,-13.680,20.100,0.250,0.871,-0.512,0.670,-0.394,0.514,0.000,0.000,0.156,0.320,2,2,0,3,7,255,1125,200,195,1125
stim,105967,105967,0,5422986.562,0.301,-0.377,0.781,0.396,67,61,73,57,19,0,33,38,42,0.000,4,0,33.190,0.659,-23.460,-11.480,20.480,0.264,0.868,-0.501,0.528,-0.394,0.280,0.000,0.000,0.156,0.320,2,2,0,3,7,255,1125,200,200,1125
stim,106031,106031,0,5422991.455,0.301,-0.376,0.782,0.397,68,58,71,55,23,0,37,37,42,0.000,4,0,31.411,0.650,-22.120,-9.660,20.100,0.270,0.869,-0.499,0.416,-0.500,0.254,0.000,0.000,0.156,0.320,2,2,0,3,7,255,1125,200,204,1125
stim,106031,106031,0,5422996.457,0.301,-0.375,0.782,0.397,56,74,70,29,39,0,62,39,42,0.000,4,0,30.006,0.654,-21.020,-8.440,19.680,0.283,0.871,-0.488,0.378,-0.534,0.254,0.000,0.000,0.156,0.320,2,2,0,3,7,255,1125,200,209,1125
stim,106031,106031,0,5423001.455,0.301,-0.373,0.782,0.397,91,99,0,74,19,0,38,47,42,0.000,4,0,28.044,0.623,-18.800,-8.880,18.820,0.290,0.892,-0.480,0.248,-0.572,0.258,0.000,0.000,0.156,0.320,2,2,0,3,7,255,1125,200,214,1125
stim,106031,106031,0,5423006.455,0.301,-0.373,0.783,0.397,73,87,57,40,43,9,45,10,42,0.000,4,0,25.677,0.622,-15.500,-10.040,17.840,0.297,0.896,-0.483,0.098,-0.614,0.418,0.000,0.000,0.156,0.320,2,2,0,3,7,255,1125,200,219,1125
stim,106031,106031,0,5423011.455,0.301,-0.372,0.783,0.398,48,83,71,29,33,5,59,18,42,0.000,4,0,22.085,0.626,-11.660,-9.980,15.880,0.313,0.887,-0.502,0.098,-0.618,0.488,0.000,0.000,0.156,0.320,2,2,0,3,7,255,1125,200,224,1125
stim,106031,106031,0,5423016.455,0.301,-0.371,0.783,0.397,69,77,44,33,39,2,48,11,42,0.000,4,0,16.432,0.861,-7.200,-7.900,12.480,0.329,0.880,-0.519,0.230,-0.830,0.538,0.000,0.000,0.156,0.320,2,2,0,3,7,255,1125,200,229,1125
stim,106047,106047,0,5423021.455,0.301,-0.371,0.784,0.397,71,83,55,43,42,3,53,7,42,0.000,4,0,11.740,1.057,-3.780,-5.900,9.420,0.339,0.888,-0.518,0.270,-1.022,0.596,0.000,0.000,0.156,0.320,2,2,0,3,7,255,1125,200,234,1125
stim,106047,106047,0,5423026.455,0.301,-0.370,0.784,0.397,81,93,51,41,38,2,39,19,42,0.000,4,0,9.118,1.072,-1.940,-5.220,7.220,0.325,0.898,-0.523,0.324,-1.022,0.688,0.000,0.000,0.156,0.320,2,2,0,3,7,255,1125,200,239,1125
stim,106047,106047,0,5423031.455,0.301,-0.370,0.784,0.397,67,82,43,48,25,1,27,17,42,0.000,4,0,7.339,1.009,-2.020,-4.240,5.640,0.326,0.887,-0.520,0.324,-0.956,0.688,0.000,0.000,0.156,0.320,2,2,0,3,7,255,1125,200,244,1125
stim,106047,106047,0,5423036.455,0.301,-0.370,0.784,0.397,46,76,75,29,43,5,69,8,42,0.000,4,0,6.164,0.996,-2.260,-3.580,4.480,0.326,0.885,-0.509,0.324,-0.942,0.650,0.000,0.000,0.156,0.320,2,2,0,3,7,255,1125,200,249,1125
stim,106047,106047,0,5423041.455,0.301,-0.370,0.784,0.397,72,79,70,64,22,7,35,37,42,0.000,4,0,4.384,0.973,-1.400,-2.720,3.140,0.312,0.877,-0.495,0.242,-0.942,0.586,0.000,0.000,0.156,0.320,2,2,0,3,7,255,1125,200,254,1125
stim,106064,106064,0,5423046.375,0.300,-0.370,0.785,0.397,87,93,55,59,19,0,39,17,42,0.000,4,0,3.382,0.837,-0.300,-2.480,2.280,0.303,0.866,-0.484,0.194,-0.814,0.424,0.000,0.000,0.156,0.320,2,2,0,3,7,255,1125,200,259,1125
stim,106064,106064,0,5423051.373,0.300,-0.370,0.785,0.397,51,57,71,59,19,0,41,43,42,0.000,4,0,3.619,0.782,0.740,-3.180,1.560,0.296,0.856,-0.480,0.184,-0.760,0.254,0.000,0.000,0.156,0.320,2,2,0,3,7,255,1125,200,264,1125
stim,106064,106064,0,5423056.373,0.300,-0.370,0.785,0.397,41,73,71,37,33,0,55,7,42,0.000,4,0,4.582,0.751,1.420,-4.220,1.080,0.289,0.840,-0.472,0.184,-0.728,0.136,0.000,0.000,0.156,0.320,2,2,0,3,7,255,1125,200,269,1125
stim,106064,106064,0,5423061.373,0.300,-0.370,0.785,0.396,74,81,51,45,41,1,39,16,42,0.000,4,0,5.577,0.732,0.740,-5.320,1.500,0.286,0.842,-0.468,0.184,-0.708,-0.050,0.000,0.000,0.156,0.320,2,2,0,3,7,255,1125,200,274,1125
stim,106064,106064,0,5423066.373,0.299,-0.370,0.785,0.396,73,75,44,55,35,7,38,5,42,0.000,4,0,6.649,0.720,1.300,-6.360,1.440,0.289,0.845,-0.478,0.184,-0.696,-0.050,0.000,0.000,0.156,0.320,2,2,0,3,7,255,1125,200,279,1125
stim,106079,106079,0,5423071.373,0.299,-0.370,0.786,0.396,61,78,56,35,37,5,57,6,42,0.000,4,0,7.301,0.726,1.540,-7.080,0.900,0.278,0.838,-0.504,0.212,-0.694,0.016,0.000,0.000,0.156,0.320,2,2,0,3,7,255,1125,200,284,1125
stim,106079,106079,0,5423076.373,0.298,-0.369,0.786,0.396,75,91,56,59,31,8,41,20,42,0.000,4,0,7.025,0.846,0.320,-6.960,0.900,0.255,0.832,-0.538,0.484,-0.694,0.042,0.000,0.000,0.156,0.320,2,2,0,3,7,255,1125,200,289,1125
stim,106079,106079,0,5423081.373,0.298,-0.369,0.786,0.396,53,60,83,55,18,0,43,33,42,0.000,4,0,6.290,1.053,-1.640,-5.620,2.300,0.240,0.833,-0.549,0.868,-0.596,0.078,0.000,0.000,0.156,0.320,2,2,0,3,7,255,1125,200,294,1125
stim,106079,106079,0,5423086.373,0.297,-0.369,0.786,0.396,73,82,45,67,34,0,29,21,42,0.000,4,0,7.351,1.118,-3.340,-4.700,4.560,0.232,0.839,-0.554,1.010,-0.480,0.094,0.000,0.000,0.156,0.320,2,2,0,3,7,255,1125,200,299,1125
stim,106127,106127,0,5423091.311,0.297,-0.369,0.787,0.396,87,85,45,59,23,0,43,24,42,0.000,4,0,8.920,1.125,-4.560,-4.340,6.320,0.236,0.834,-0.552,1.034,-0.444,0.110,0.000,0.000,0.156,0.320,2,2,0,3,7,255,1125,200,304,1125
stim,106127,106127,0,5423096.311,0.297,-0.369,0.787,0.396,73,79,56,34,38,2,57,17,42,0.000,4,0,10.257,1.125,-5.540,-3.740,7.780,0.245,0.825,-0.552,1.034,-0.444,0.110,0.000,0.000,0.156,0.320,2,2,0,3,7,255,1125,200,309,1125
stim,106127,106127,0,5423101.313,0.297,-0.368,0.787,0.396,45,71,53,52,24,0,38,24,42,0.000,4,0,10.286,1.161,-5.620,-2.640,8.200,0.260,0.824,-0.543,1.022,-0.550,0.060,0.000,0.000,0.156,0.320,2,2,0,3,7,255,1125,200,314,1125
stim,106127,106127,0,5423106.311,0.297,-0.368,0.787,0.395,43,67,70,35,17,0,57,37,42,0.000,4,0,9.874,1.116,-5.140,-1.960,8.200,0.270,0.820,-0.529,0.894,-0.668,0.052,0.000,0.000,0.156,0.320,2,2,0,3,7,255,1125,200,319,1125
stim,106127,106127,0,5423111.311,0.297,-0.368,0.788,0.395,69,85,45,40,33,3,59,11,42,0.000,4,0,8.845,1.014,-4.040,-1.300,7.760,0.269,0.826,-0.522,0.752,-0.680,0.000,0.000,0.000,0.156,0.320,2,2,0,3,7,255,1125,200,324,1125
stim,106143,106143,0,5423116.311,0.297,-0.368,0.788,0.395,71,77,52,37,41,1,60,8,42,0.000,4,0,7.720,0.973,-2.460,-0.740,7.280,0.274,0.829,-0.518,0.676,-0.700,0.000,0.000,0.000,0.156,0.320,2,2,0,3,7,255,1125,200,329,1125
stim,106143,106143,0,5423121.311,0.296,-0.367,0.788,0.395,71,81,57,43,41,5,51,10,42,0.000,4,0,6.736,0.930,-0.140,-0.440,6.720,0.283,0.827,-0.522,0.612,-0.700,0.020,0.000,0.000,0.156,0.320,2,2,0,3,7,255,1125,200,334,1125
stim,106143,106143,0,5423126.311,0.296,-0.367,0.788,0.394,59,59,51,57,11,0,31,37,42,0.000,4,0,6.042,0.990,2.000,-0.140,5.700,0.288,0.827,-0.525,0.610,-0.780,0.052,0.000,0.000,0.156,0.320,2,2,0,3,7,255,1125,200,339,1125
stim,106143,106143,0,5423131.311,0.296,-0.367,0.789,0.394,77,80,51,55,30,0,29,20,42,0.000,4,0,5.793,1.025,3.160,-0.380,4.840,0.293,0.832,-0.523,0.610,-0.824,0.072,0.000,0.000,0.156,0.320,2,2,0,3,7,255,1125,200,344,1125
stim,106143,106143,0,5423136.311,0.296,-0.367,0.789,0.394,75,80,44,37,39,1,48,9,42,0.000,4,0,6.266,1.025,4.800,-0.620,3.980,0.288,0.837,-0.540,0.610,-0.824,0.120,0.000,0.000,0.156,0.320,2,2,0,3,7,255,1125,200,349,1125
stim,106143,106143,0,5423141.311,0.296,-0.368,0.789,0.393,51,57,48,38,30,9,53,9,42,0.000,4,0,7.302,1.085,6.640,0.480,3.000,0.294,0.836,-0.548,0.682,-0.844,0.226,0.000,0.000,0.156,0.320,2,2,0,3,7,255,1125,200,354,1125
stim,106159,106159,0,5423146.263,0.295,-0.368,0.790,0.393,39,51,77,30,22,0,68,27,42,0.000,4,0,8.204,1.121,7.680,2.060,2.020,0.299,0.835,-0.548,0.700,-0.876,0.280,0.000,0.000,0.156,0.320,2,2,0,3,7,255,1125,200,359,1125
stim,106159,106159,0,5423151.263,0.295,-0.368,0.790,0.392,47,77,55,33,39,6,69,14,42,0.000,4,0,8.144,1.121,7.500,2.680,1.700,0.299,0.835,-0.535,0.700,-0.876,0.280,0.000,0.000,0.156,0.320,2,2,0,3,7,255,1125,200,364,1125
stim,106159,106159,0,5423156.263,0.295,-0.368,0.790,0.392,43,59,75,53,18,0,60,41,42,0.000,4,0,6.507,1.047,6.080,1.640,1.640,0.298,0.837,-0.535,0.576,-0.874,0.234,0.000,0.000,0.156,0.320,2,2,0,3,7,255,1125,200,369,1125
stim,106159,106159,0,5423161.263,0.295,-0.368,0.790,0.391,58,81,75,43,40,0,63,16,42,0.000,4,0,5.546,1.047,5.420,0.800,0.860,0.301,0.838,-0.541,0.576,-0.874,0.234,0.000,0.000,0.156,0.320,2,2,0,3,7,255,1125,200,374,1125
stim,106159,106159,0,5423166.263,0.294,-0.369,0.790,0.391,69,85,53,33,39,8,56,12,42,0.000,4,0,4.632,1.051,4.620,0.240,-0.240,0.306,0.829,-0.537,0.562,-0.888,0.234,0.000,0.000,0.156,0.320,2,2,0,3,7,255,1125,200,379,1125
stim,106175,106175,0,5423171.263,0.294,-0.369,0.790,0.391,71,79,45,29,39,9,47,9,42,0.000,4,0,3.835,1.081,3.580,-0.740,-1.160,0.306,0.828,-0.525,0.558,-0.926,0.204,0.000,0.000,0.156,0.320,2,2,0,3,7,255,1125,200,384,1125
stim,106175,106175,0,5423176.263,0.294,-0.369,0.791,0.391,69,85,47,31,33,2,56,16,42,0.000,4,0,3.407,1.048,1.640,-2.200,-2.020,0.307,0.826,-0.524,0.452,-0.946,0.140,0.000,0.000,0.156,0.320,2,2,0,3,7,255,1125,200,389,1125
stim,106175,106175,0,5423181.263,0.293,-0.369,0.791,0.391,77,81,55,39,40,5,49,19,42,0.000,4,0,4.341,1.030,0.660,-3.180,-2.880,0.300,0.832,-0.539,0.452,-0.926,0.140,0.000,0.000,0.156,0.320,2,2,0,3,7,255,1125,200,394,1125
stim,106175,106175,0,5423186.263,0.293,-0.369,0.791,0.391,73,85,47,57,23,12,37,22,42,0.000,4,0,5.154,1.057,-0.440,-3.540,-3.720,0.295,0.823,-0.538,0.560,-0.896,0.128,0.000,0.000,0.156,0.320,2,2,0,3,7,255,1125,200,399,1125
stim,106239,106239,0,5423191.227,0.293,-0.369,0.791,0.391,93,92,83,62,41,0,63,45,42,0.000,4,0,6.587,1.069,-2.160,-4.460,-4.340,0.284,0.828,-0.537,0.598,-0.886,0.132,0.000,0.000,0.156,0.320,2,2,0,3,7,255,1125,200,404,1125
stim,106239,106239,0,5423196.226,0.292,-0.369,0.791,0.391,91,95,44,69,11,0,29,23,42,0.000,4,0,7.674,0.983,-3.260,-5.060,-4.760,0.277,0.824,-0.539,0.608,-0.772,0.128,0.000,0.000,0.156,0.320,2,2,0,3,7,255,1125,200,409,1125
stim,106239,106239,0,5423201.226,0.292,-0.369,0.791,0.391,74,85,55,42,43,10,42,16,42,0.000,4,0,8.341,0.983,-4.140,-5.140,-5.100,0.273,0.822,-0.537,0.650,-0.738,0.094,0.000,0.000,0.156,0.320,2,2,0,3,7,255,1125,200,414,1125
stim,106239,106239,0,5423206.226,0.291,-0.370,0.791,0.391,45,56,74,59,17,0,38,39,42,0.000,4,0,8.191,0.971,-3.900,-4.900,-5.280,0.264,0.828,-0.538,0.654,-0.718,0.088,0.000,0.000,0.156,0.320,2,2,0,3,7,255,1125,200,419,1125
stim,106239,106239,0,5423211.226,0.291,-0.370,0.791,0.391,61,74,53,25,33,8,54,9,42,0.000,4,0,7.410,0.910,-2.600,-4.640,-5.160,0.260,0.825,-0.543,0.672,-0.614,0.076,0.000,0.000,0.156,0.320,2,2,0,3,7,255,1125,200,424,1125
stim,106239,106239,0,5423216.226,0.290,-0.370,0.791,0.391,73,78,57,35,33,6,58,18,42,0.000,4,0,6.624,0.950,-0.660,-4.100,-5.160,0.253,0.831,-0.548,0.730,-0.608,0.088,0.000,0.000,0.156,0.320,2,2,0,3,7,255,1125,200,429,1125
stim,106239,106239,0,5423221.226,0.290,-0.370,0.791,0.391,64,84,47,39,37,7,59,16,42,0.000,4,0,6.149,0.940,1.300,-3.480,-4.900,0.250,0.834,-0.551,0.768,-0.542,0.128,0.000,0.000,0.156,0.320,2,2,0,3,7,255,1125,200,434,1125
stim,106239,106239,0,5423226.226,0.290,-0.370,0.791,0.391,69,81,49,35,33,8,51,17,42,0.000,4,0,6.275,0.953,2.580,-3.480,-4.540,0.252,0.826,-0.559,0.784,-0.542,0.138,0.000,0.000,0.156,0.320,2,2,0,3,7,255,1125,200,439,1125
stim,106239,106239,0,5423231.227,0.289,-0.370,0.791,0.391,42,75,72,35,45,7,63,13,42,0.000,4,0,6.132,0.998,3.180,-3.000,-4.300,0.243,0.825,-0.562,0.856,-0.514,0.138,0.000,0.000,0.156,0.320,2,2,0,3,7,255,1125,200,444,1125
stim,106239,106239,0,5423236.227,0.289,-0.371,0.792,0.391,42,55,75,55,8,0,33,44,42,0.000,4,0,5.689,1.023,3.680,-2.200,-3.740,0.232,0.825,-0.555,0.884,-0.514,0.118,0.000,0.000,0.156,0.320,2,2,0,3,7,255,1125,200,449,1125
stim,106239,106239,0,5423241.226,0.288,-0.371,0.792,0.390,51,80,43,39,44,11,48,16,42,0.000,4,0,5.512,1.004,4.540,-1.540,-2.720,0.239,0.821,-0.551,0.884,-0.476,0.060,0.000,0.000,0.156,0.320,2,2,0,3,7,255,1125,200,454,1125
stim,106255,106255,0,5423246.119,0.288,-0.371,0.792,0.390,46,76,51,30,36,4,56,8,42,0.000,4,0,6.281,0.957,5.700,-1.220,-2.340,0.253,0.811,-0.543,0.830,-0.476,0.026,0.000,0.000,0.156,0.320,2,2,0,3,7,255,1125,200,459,1125
stim,106255,106255,0,5423251.120,0.287,-0.371,0.792,0.390,45,60,73,53,13,0,47,41,42,0.000,4,0,6.355,0.959,5.780,-1.060,-2.420,0.261,0.813,-0.533,0.730,-0.622,-0.058,0.000,0.000,0.156,0.320,2,2,0,3,7,255,1125,200,464,1125
stim,106255,106255,0,5423256.119,0.287,-0.372,0.792,0.390,49,57,75,33,25,0,69,28,42,0.000,4,0,6.671,0.891,5.960,-1.120,-2.780,0.266,0.821,-0.536,0.598,-0.660,-0.058,0.000,0.000,0.156,0.320,2,2,0,3,7,255,1125,200,469,1125
stim,106255,106255,0,5423261.119,0.286,-0.372,0.792,0.389,53,83,68,33,39,5,55,18,42,0.000,4,0,7.429,0.898,6.460,-1.560,-3.320,0.272,0.824,-0.545,0.598,-0.670,0.034,0.000,0.000,0.156,0.320,2,2,0,3,7,255,1125,200,474,1125
stim,106255,106255,0,5423266.119,0.286,-0.372,0.793,0.389,63,81,48,33,39,4,55,9,42,0.000,4,0,7.948,0.947,6.580,-1.380,-4.240,0.272,0.821,-0.546,0.598,-0.734,0.096,0.000,0.000,0.156,0.320,2,2,0,3,7,255,1125,200,479,1125
stim,106271,106271,0,5423271.119,0.286,-0.373,0.793,0.389,64,76,49,36,38,10,53,8,42,0.000,4,0,7.393,0.956,5.240,-2.040,-4.800,0.276,0.823,-0.533,0.598,-0.746,0.096,0.000,0.000,0.156,0.320,2,2,0,3,7,255,1125,200,484,1125
stim,106271,106271,0,5423276.119,0.285,-0.373,0.793,0.389,54,80,73,31,44,9,65,15,42,0.000,4,0,7.607,0.873,4.380,-3.560,-5.100,0.278,0.831,-0.528,0.454,-0.746,0.096,0.000,0.000,0.156,0.320,2,2,0,3,7,255,1125,200,489,1125
stim,106271,106271,0,5423281.119,0.285,-0.373,0.793,0.389,77,85,43,58,21,3,30,31,42,0.000,4,0,8.648,0.833,3.780,-5.160,-5.820,0.288,0.820,-0.529,0.370,-0.746,0.064,0.000,0.000,0.156,0.320,2,2,0,3,7,255,1125,200,494,1125
stim,106271,106271,0,5423286.119,0.284,-0.373,0.793,0.389,64,75,45,33,44,1,56,6,42,0.000,4,0,9.645,0.892,2.860,-5.940,-7.040,0.285,0.826,-0.529,0.370,-0.812,0.094,0.000,0.000,0.156,0.320,2,2,0,3,7,255,1125,200,499,1125
stim,106335,106335,0,5423290.971,0.284,-0.374,0.793,0.389,41,20,78,59,39,1,56,39,42,0.000,4,0,10.801,0.890,2.920,-6.620,-8.020,0.280,0.827,-0.530,0.364,-0.812,0.094,0.000,0.000,0.156,0.320,2,2,0,3,7,255,1125,200,504,1125
stim,106335,106335,0,5423295.969,0.283,-0.374,0.793,0.389,92,99,53,73,21,0,39,25,42,0.000,4,0,11.469,0.859,2.740,-7.100,-8.580,0.275,0.823,-0.542,0.364,-0.778,0.096,0.000,0.000,0.156,0.320,2,2,0,3,7,255,1125,200,509,1125
stim,106335,106335,0,5423300.969,0.282,-0.374,0.793,0.389,71,89,44,53,39,0,29,10,42,0.000,4,0,12.053,0.918,2.360,-6.840,-9.640,0.267,0.816,-0.557,0.488,-0.778,0.098,0.000,0.000,0.156,0.320,2,2,0,3,7,255,1125,200,514,1125
stim,106335,106335,0,5423305.969,0.282,-0.375,0.793,0.389,73,83,51,53,33,6,37,13,42,0.000,4,0,11.920,1.014,1.700,-6.540,-9.820,0.255,0.814,-0.553,0.650,-0.778,0.098,0.000,0.000,0.156,0.320,2,2,0,3,7,255,1125,200,519,1125
stim,106335,106335,0,5423310.969,0.281,-0.375,0.793,0.389,77,83,52,55,28,0,30,18,42,0.000,4,0,11.736,0.946,1.700,-6.900,-9.340,0.235,0.823,-0.556,0.656,-0.682,0.072,0.000,0.000,0.156,0.320,2,2,0,3,7,255,1125,200,524,1125
stim,106335,106335,0,5423315.969,0.280,-0.375,0.793,0.389,67,84,55,37,39,6,47,16,42,0.000,4,0,11.811,0.865,1.760,-7.320,-9.100,0.226,0.820,-0.559,0.714,-0.488,0.038,0.000,0.000,0.156,0.320,2,2,0,3,7,255,1125,200,529,1125
stim,106335,106335,0,5423320.969,0.280,-0.375,0.793,0.389,72,83,51,40,43,8,56,11,42,0.000,4,0,11.085,0.891,1.260,-7.440,-8.120,0.223,0.817,-0.572,0.768,-0.452,0.072,0.000,0.000,0.156,0.320,2,2,0,3,7,255,1125,200,534,1125
stim,106335,106335,0,5423325.969,0.279,-0.376,0.793,0.389,77,79,53,56,42,9,33,19,42,0.000,4,0,9.469,1.000,0.040,-6.420,-6.960,0.225,0.819,-0.589,0.892,-0.452,0.072,0.000,0.000,0.156,0.320,2,2,0,3,7,255,1125,200,539,1125
stim,106351,106351,0,5423330.969,0.279,-0.376,0.794,0.389,73,78,45,55,16,0,29,29,42,0.000,4,0,7.581,1.108,-1.180,-4.880,-5.680,0.222,0.831,-0.601,1.002,-0.472,0.174,0.000,0.000,0.156,0.320,2,2,0,3,7,255,1125,200,544,1125
stim,106351,106351,0,5423335.969,0.278,-0.376,0.794,0.389,64,85,52,37,39,3,57,12,42,0.000,4,0,5.808,1.143,-2.580,-2.680,-4.460,0.225,0.834,-0.602,1.036,-0.482,0.318,0.000,0.000,0.156,0.320,2,2,0,3,7,255,1125,200,549,1125
stim,106351,106351,0,5423340.969,0.278,-0.376,0.794,0.389,73,91,53,61,13,0,40,31,42,0.000,4,0,5.427,1.143,-4.420,-0.740,-3.060,0.235,0.837,-0.604,1.036,-0.482,0.360,0.000,0.000,0.156,0.320,2,2,0,3,7,255,1125,200,554,1125
stim,106367,106367,0,5423345.854,0.278,-0.376,0.794,0.389,73,77,51,57,13,0,33,21,42,0.000,4,0,6.071,1.147,-5.320,1.520,-2.500,0.248,0.840,-0.602,0.998,-0.566,0.420,0.000,0.000,0.156,0.320,2,2,0,3,7,255,1125,200,559,1125
stim,106367,106367,0,5423350.854,0.278,-0.376,0.794,0.389,69,85,57,41,50,16,40,9,42,0.000,4,0,6.984,1.139,-5.300,3.760,-2.560,0.255,0.842,-0.591,0.922,-0.668,0.446,0.000,0.000,0.156,0.320,2,2,0,3,7,255,1125,200,564,1125
stim,106367,106367,0,5423355.854,0.278,-0.376,0.794,0.389,49,57,77,41,25,0,57,25,42,0.000,4,0,7.491,1.059,-4.880,4.980,-2.740,0.260,0.844,-0.575,0.794,-0.700,0.446,0.000,0.000,0.156,0.320,2,2,0,3,7,255,1125,200,569,1125
stim,106367,106367,0,5423360.854,0.278,-0.376,0.793,0.389,64,78,43,37,33,0,52,16,42,0.000,4,0,7.420,0.947,-4.400,4.980,-3.300,0.268,0.837,-0.563,0.638,-0.700,0.400,0.000,0.000,0.156,0.320,2,2,0,3,7,255,1125,200,574,1125
stim,106367,106367,0,5423365.854,0.278,-0.377,0.793,0.389,63,85,50,35,33,7,61,16,42,0.000,4,0,7.536,0.928,-3.720,4.980,-4.260,0.278,0.833,-0.560,0.526,-0.764,0.306,0.000,0.000,0.156,0.320,2,2,0,3,7,255,1125,200,579,1125
stim,106367,106367,0,5423370.854,0.278,-0.377,0.793,0.389,72,78,48,33,39,6,54,16,42,0.000,4,0,8.382,0.990,-2.440,5.600,-5.740,0.281,0.835,-0.557,0.484,-0.864,0.292,0.000,0.000,0.156,0.320,2,2,0,3,7,255,1125,200,584,1125
stim,106367,106367,0,5423375.855,0.278,-0.377,0.793,0.389,62,82,47,35,43,6,53,10,42,0.000,4,0,9.094,0.979,-1.220,5.420,-7.200,0.286,0.834,-0.551,0.432,-0.878,0.280,0.000,0.000,0.156,0.320,2,2,0,3,7,255,1125,200,589,1125
stim,106367,106367,0,5423380.854,0.278,-0.378,0.793,0.389,53,87,56,38,38,5,69,19,42,0.000,4,0,9.841,0.980,-0.740,4.260,-8.840,0.286,0.835,-0.551,0.370,-0.908,0.276,0.000,0.000,0.156,0.320,2,2,0,3,7,255,1125,200,594,1125
stim,106367,106367,0,5423385.854,0.277,-0.378,0.793,0.389,45,57,81,29,39,0,56,29,42,0.000,4,0,10.629,0.986,-0.120,2.540,-10.320,0.286,0.837,-0.557,0.370,-0.914,0.276,0.000,0.000,0.156,0.320,2,2,0,3,7,255,1125,200,599,1125
stim,117072,117072,1,5434009.648,0.994,-0.006,0.107,0.000,73,67,83,63,29,5,74,47,0,0.000,0,0,3.420,0.000,-1.800,0.220,-2.900,0.109,0.759,-0.620,0.000,0.000,0.000,0.000,0.000,0.000,0.000,0,2,1,3,7,255,1125,200,1098,1125
stim,117072,117072,1,5434024.648,0.881,0.206,0.334,-0.263,73,67,83,63,29,5,74,47,0,0.000,0,0,1135.105,4.390,-655.360,-655.360,655.340,0.071,0.776,-0.648,1.078,4.256,-15.854,0.000,0.000,0.000,0.000,0,2,1,3,7,255,1125,200,1113,1125
stim,117072,117072,1,5434029.647,0.802,0.274,0.402,-0.346,73,67,83,63,29,5,74,47,0,0.000,0,0,1135.105,4.544,-655.360,-655.360,655.340,0.061,0.762,-0.638,1.592,4.256,-18.648,0.000,0.000,0.000,0.000,0,2,1,3,7,255,1125,200,1118,1125
stim,117072,117072,1,5434034.647,0.802,0.274,0.402,-0.346,73,67,83,63,29,5,74,47,0,0.000,0,0,1.789,4.056,-0.700,-1.060,-1.260,0.088,0.771,-0.615,2.414,3.260,-18.648,0.000,0.000,0.000,0.000,0,2,1,3,7,255,1125,200,1123,1125
stim,117072,117072,1,5434039.647,0.802,0.273,0.403,-0.346,73,67,83,63,29,5,74,47,0,0.000,0,0,1.657,3.986,-0.700,-1.000,-1.120,0.087,0.761,-0.628,2.440,3.152,-18.634,0.000,0.000,0.000,0.000,0,2,1,3,7,255,1125,200,3,1125
stim,117072,117072,1,5434044.647,0.802,0.273,0.404,-0.346,73,67,83,63,29,5,74,47,0,0.000,0,0,1.341,4.076,-0.760,-0.740,-0.820,0.093,0.764,-0.639,2.542,3.186,-18.634,0.000,0.000,0.000,0.000,0,2,1,3,7,255,1125,200,8,1125
stim,117087,117087,1,5434059.647,0.801,0.273,0.406,-0.346,51,72,75,67,18,0,56,43,0,0.000,0,0,6.735,4.329,-5.780,-2.700,-2.160,0.121,0.762,-0.643,2.802,3.300,-18.592,0.000,0.000,0.000,0.000,0,2,1,3,7,255,1125,200,23,1125
stim,117087,117087,1,5434064.647,0.801,0.272,0.407,-0.346,53,83,77,39,40,0,67,20,0,0.000,0,0,8.051,4.446,-6.440,-3.620,-3.200,0.122,0.765,-0.650,2.884,3.384,-18.592,0.000,0.000,0.000,0.000,0,2,1,3,7,255,1125,200,28,1125
stim,117087,117087,1,5434069.647,0.800,0.272,0.408,-0.345,47,58,71,61,22,0,43,41,0,0.000,0,0,8.457,4.502,-6.940,-2.880,-3.880,0.122,0.771,-0.655,2.948,3.402,-18.646,0.000,0.000,0.000,0.000,0,2,1,3,7,255,1125,200,33,1125
stim,117087,117087,1,5434074.647,0.800,0.272,0.409,-0.345,71,64,53,67,20,1,37,39,0,0.000,0,0,8.977,4.544,-7.660,-2.220,-4.120,0.126,0.771,-0.659,2.980,3.430,-18.706,0.000,0.000,0.000,0.000,0,2,1,3,7,255,1125,200,38,1125
stim,117087,117087,1,5434079.647,0.800,0.272,0.410,-0.345,43,56,75,39,53,12,63,27,0,0.000,0,0,9.521,4.602,-8.220,-2.020,-4.360,0.128,0.772,-0.656,3.044,3.452,-18.706,0.000,0.000,0.000,0.000,0,2,1,3,7,255,1125,200,43,1125
stim,117119,117119,1,5434084.647,0.799,0.272,0.410,-0.345,89,70,79,71,20,13,59,45,0,0.000,0,0,9.821,4.625,-8.460,-1.780,-4.660,0.123,0.773,-0.652,3.044,3.482,-18.684,0.000,0.000,0.000,0.000,0,2,1,3,7,255,1125,200,48,1125
stim,117119,117119,1,5434089.647,0.799,0.272,0.411,-0.344,79,91,47,39,41,9,43,19,0,0.000,0,0,9.686,4.601,-8.160,-1.900,-4.860,0.121,0.772,-0.646,3.000,3.488,-18.676,0.000,0.000,0.000,0.000,0,2,1,3,7,255,1125,200,53,1125
stim,117119,117119,1,5434094.647,0.799,0.272,0.412,-0.344,45,91,37,58,23,0,43,26,0,0.000,0,0,9.321,4.571,-7.600,-2.080,-4.980,0.118,0.768,-0.645,2.962,3.482,-18.636,0.000,0.000,0.000,0.000,0,2,1,3,7,255,1125,200,58,1125
stim,117119,117119,1,5434099.647,0.798,0.272,0.413,-0.344,79,73,85,75,24,0,69,41,0,0.000,0,0,8.647,4.552,-6.620,-2.220,-5.100,0.115,0.764,-0.646,2.962,3.456,-18.598,0.000,0.000,0.000,0.000,0,2,1,3,7,255,1125,200,63,1125
stim,117119,117119,1,5434104.647,0.798,0.272,0.414,-0.343,44,59,85,29,25,0,66,35,0,0.000,0,0,8.064,4.520,-5.580,-2.020,-5.460,0.108,0.763,-0.639,2.962,3.414,-18.580,0.000,0.000,0.000,0.000,0,2,1,3,7,255,1125,200,68,1125
stim,117119,117119,1,5434109.647,0.798,0.272,0.415,-0.343,77,87,55,57,39,10,33,8,0,0.000,0,0,7.913,4.465,-5.100,-2.340,-5.580,0.103,0.758,-0.628,2.910,3.386,-18.548,0.000,0.000,0.000,0.000,0,2,1,3,7,255,1125,200,73,1125
stim,117119,117119,1,5434114.647,0.797,0.271,0.416,-0.343,53,7,75,55,16,0,43,39,0,0.000,0,0,7.865,4.394,-4.800,-3.000,-5.460,0.094,0.757,-0.619,2.824,3.366,-18.462,0.000,0.000,0.000,0.000,0,2,1,3,7,255,1125,200,78,1125
stim,117119,117119,1,5434119.647,0.797,0.271,0.417,-0.343,47,71,83,61,26,2,44,43,0,0.000,0,0,7.705,4.310,-4.360,-3.620,-5.220,0.085,0.752,-0.615,2.726,3.338,-18.426,0.000,0.000,0.000,0.000,0,2,1,3,7,255,1125,200,83,1125
stim,117119,117119,1,5434124.648,0.797,0.271,0.418,-0.342,81,85,53,67,37,12,33,22,0,0.000,0,0,6.799,4.220,-3.580,-3.500,-4.600,0.074,0.751,-0.607,2.672,3.266,-18.394,0.000,0.000,0.000,0.000,0,2,1,3,7,255,1125,200,88,1125
stim,117119,117119,1,5434129.647,0.797,0.271,0.418,-0.342,57,70,73,48,51,13,57,17,0,0.000,0,0,5.349,4.109,-3.080,-2.700,-3.440,0.070,0.748,-0.605,2.562,3.212,-18.368,0.000,0.000,0.000,0.000,0,2,1,3,7,255,1125,200,93,1125
stim,117151,117151,1,5434134.647,0.796,0.270,0.419,-0.342,91,93,62,70,18,3,43,44,0,0.000,0,0,4.492,4.084,-3.020,-2.280,-2.420,0.073,0.740,-0.605,2.562,3.180,-18.344,0.000,0.000,0.000,0.000,0,2,1,3,7,255,1125,200,98,1125
stim,117151,117151,0,5434139.647,0.796,0.270,0.420,-0.342,43,58,85,40,47,0,70,31,0,0.000,0,0,4.317,4.072,-3.580,-1.840,-1.560,0.074,0.744,-0.597,2.544,3.180,-18.270,0.000,0.000,0.000,0.000,0,2,0,3,7,255,1125,200,103,1125
stim,117151,117151,0,5434144.647,0.796,0.270,0.420,-0.342,71,80,55,47,40,5,41,8,0,0.000,0,0,3.669,4.139,-3.460,-1.000,-0.700,0.076,0.749,-0.604,2.596,3.224,-18.270,0.000,0.000,0.000,0.000,0,2,0,3,7,255,1125,200,108,1125
stim,117151,117151,0,5434149.647,0.796,0.270,0.421,-0.342,49,59,71,56,15,0,29,33,0,0.000,0,0,3.389,4.166,-3.340,-0.500,-0.280,0.089,0.746,-0.616,2.596,3.258,-18.300,0.000,0.000,0.000,0.000,0,2,0,3,7,255,1125,200,113,1125
stim,117151,117151,0,5434154.647,0.795,0.270,0.422,-0.342,82,85,51,68,22,7,39,30,0,0.000,0,0,3.246,4.316,-3.200,0.160,-0.520,0.094,0.750,-0.613,2.782,3.300,-18.300,0.000,0.000,0.000,0.000,0,2,0,3,7,255,1125,200,118,1125
stim,117168,117168,0,5434159.647,0.795,0.270,0.422,-0.341,70,62,72,62,23,0,55,41,0,0.000,0,0,3.596,4.370,-3.520,0.360,-0.640,0.094,0.757,-0.611,2.782,3.370,-18.300,0.000,0.000,0.000,0.000,0,2,0,3,7,255,1125,200,123,1125
stim,117168,117168,0,5434164.647,0.795,0.269,0.423,-0.341,55,67,83,40,35,0,65,37,0,0.000,0,0,3.605,4.418,-3.460,-0.380,-0.940,0.097,0.758,-0.614,2.782,3.432,-18.320,0.000,0.000,0.000,0.000,0,2,0,3,7,255,1125,200,128,1125
stim,117168,117168,0,5434169.647,0.795,0.269,0.424,-0.341,71,88,55,57,39,10,39,12,0,0.000,0,0,3.838,4.428,-3.260,-1.360,-1.500,0.098,0.766,-0.611,2.770,3.454,-18.330,0.000,0.000,0.000,0.000,0,2,0,3,7,255,1125,200,133,1125
stim,117168,117168,0,5434174.647,0.794,0.269,0.425,-0.341,51,87,72,39,47,0,68,12,0,0.000,0,0,4.587,4.503,-3.400,-2.580,-1.680,0.099,0.770,-0.620,2.798,3.528,-18.358,0.000,0.000,0.000,0.000,0,2,0,3,7,255,1125,200,138,1125
stim,117168,117168,0,5434179.647,0.794,0.269,0.425,-0.341,89,95,71,77,22,0,59,53,0,0.000,0,0,5.379,4.535,-3.640,-3.320,-2.160,0.102,0.772,-0.631,2.834,3.540,-18.424,0.000,0.000,0.000,0.000,0,2,0,3,7,255,1125,200,143,1125
stim,117231,117231,0,5434184.648,0.794,0.268,0.426,-0.341,89,91,47,51,21,0,39,23,0,0.000,0,0,5.564,4.599,-3.400,-3.680,-2.420,0.098,0.783,-0.634,2.922,3.552,-18.488,0.000,0.000,0.000,0.000,0,2,0,3,7,255,1125,200,148,1125
stim,117231,117231,0,5434189.647,0.793,0.268,0.427,-0.341,75,84,53,55,51,19,41,13,0,0.000,0,0,5.323,4.632,-3.260,-3.680,-2.040,0.099,0.788,-0.632,2.922,3.594,-18.586,0.000,0.000,0.000,0.000,0,2,0,3,7,255,1125,200,153,1125
stim,117231,117231,0,5434194.647,0.793,0.268,0.428,-0.341,71,77,46,57,43,6,33,24,0,0.000,0,0,5.227,4.671,-3.260,-3.800,-1.500,0.108,0.781,-0.642,2.922,3.644,-18.586,0.000,0.000,0.000,0.000,0,2,0,3,7,255,1125,200,158,1125
stim,117231,117231,0,5434199.647,0.793,0.268,0.429,-0.340,75,73,59,69,20,0,43,39,0,0.000,0,0,5.267,4.766,-3.700,-3.320,-1.740,0.119,0.778,-0.644,3.062,3.652,-18.568,0.000,0.000,0.000,0.000,0,2,0,3,7,255,1125,200,163,1125
stim,117231,117231,0,5434204.647,0.792,0.268,0.430,-0.340,76,83,51,67,40,10,37,19,0,0.000,0,0,5.916,4.876,-4.800,-2.700,-2.160,0.127,0.782,-0.642,3.160,3.714,-18.504,0.000,0.000,0.000,0.000,0,2,0,3,7,255,1125,200,168,1125
stim,117231,117231,0,5434209.647,0.792,0.267,0.431,-0.340,71,89,53,59,39,9,41,20,0,0.000,0,0,7.206,4.972,-6.020,-2.820,-2.780,0.134,0.782,-0.644,3.190,3.814,-18.478,0.000,0.000,0.000,0.000,0,2,0,3,7,255,1125,200,173,1125
stim,117263,117263,0,5434214.647,0.792,0.267,0.432,-0.340,81,85,46,60,31,8,39,23,0,0.000,0,0,8.665,5.054,-7.000,-3.320,-3.880,0.135,0.787,-0.647,3.256,3.866,-18.478,0.000,0.000,0.000,0.000,0,2,0,3,7,255,1125,200,178,1125
stim,117263,117263,0,5434219.647,0.791,0.267,0.433,-0.339,88,92,40,59,23,0,33,61,0,0.000,0,0,9.345,5.067,-7.120,-3.440,-4.980,0.124,0.794,-0.646,3.256,3.882,-18.498,0.000,0.000,0.000,0.000,0,2,0,3,7,255,1125,200,183,1125
stim,117263,117263,0,5434224.647,0.791,0.267,0.433,-0.339,49,57,83,40,35,0,63,33,0,0.000,0,0,9.601,5.036,-7.300,-3.120,-5.400,0.111,0.799,-0.644,3.208,3.882,-18.578,0.000,0.000,0.000,0.000,0,2,0,3,7,255,1125,200,188,1125
stim,117263,117263,0,5434229.647,0.791,0.267,0.434,-0.339,43,77,55,39,53,11,61,12,0,0.000,0,0,9.466,4.941,-7.540,-2.820,-4.980,0.104,0.796,-0.639,3.116,3.834,-18.614,0.000,0.000,0.000,0.000,0,2,0,3,7,255,1125,200,193,1125
stim,117263,117263,0,5434234.648,0.790,0.267,0.435,-0.339,57,73,55,43,40,20,55,21,0,0.000,0,0,9.209,4.872,-7.660,-2.460,-4.480,0.100,0.793,-0.635,3.066,3.786,-18.614,0.000,0.000,0.000,0.000,0,2,0,3,7,255,1125,200,198,1125
stim,117263,117263,0,5434239.647,0.790,0.267,0.436,-0.338,51,85,72,31,43,7,60,13,0,0.000,0,0,8.494,4.852,-7.240,-1.660,-4.120,0.093,0.798,-0.621,3.034,3.786,-18.576,0.000,0.000,0.000,0.000,0,2,0,3,7,255,1125,200,203,1125
stim,117263,117263,0,5434244.647,0.790,0.267,0.437,-0.338,69,77,53,54,43,8,39,22,0,0.000,0,0,7.831,4.771,-7.120,-0.620,-3.200,0.094,0.797,-0.618,2.896,3.792,-18.546,0.000,0.000,0.000,0.000,0,2,0,3,7,255,1125,200,208,1125
stim,117263,117263,0,5434249.647,0.790,0.266,0.438,-0.338,64,57,51,61,20,0,27,33,0,0.000,0,0,6.270,4.787,-5.720,-0.380,-2.540,0.101,0.793,-0.616,2.896,3.812,-18.516,0.000,0.000,0.000,0.000,0,2,0,3,7,255,1125,200,213,1125
stim,117263,117263,0,5434254.647,0.789,0.266,0.438,-0.338,75,85,51,57,33,3,37,20,0,0.000,0,0,4.627,4.825,-4.060,-0.020,-2.220,0.100,0.790,-0.612,2.922,3.840,-18.442,0.000,0.000,0.000,0.000,0,2,0,3,7,255,1125,200,218,1125
stim,117279,117279,0,5434259.647,0.789,0.266,0.439,-0.337,73,72,73,49,39,0,33,44,0,0.000,0,0,3.421,4.827,-2.780,0.540,-1.920,0.099,0.789,-0.608,2.922,3.842,-18.388,0.000,0.000,0.000,0.000,0,2,0,3,7,255,1125,200,223,1125
stim,117279,117279,0,5434264.647,0.789,0.266,0.440,-0.337,46,76,87,41,53,0,73,15,0,0.000,0,0,2.438,4.814,-1.740,0.540,-1.620,0.097,0.790,-0.608,2.898,3.844,-18.366,0.000,0.000,0.000,0.000,0,2,0,3,7,255,1125,200,228,1125
stim,117279,117279,0,5434269.647,0.789,0.265,0.441,-0.337,75,82,55,69,39,6,33,22,0,0.000,0,0,1.915,4.812,-1.380,0.420,-1.260,0.094,0.787,-0.603,2.894,3.844,-18.356,0.000,0.000,0.000,0.000,0,2,0,3,7,255,1125,200,233,1125
stim,117279,117279,0,5434274.647,0.788,0.265,0.441,-0.337,70,82,45,59,45,16,43,11,0,0.000,0,0,1.889,4.796,-1.740,0.360,-0.640,0.091,0.789,-0.597,2.854,3.854,-18.324,0.000,0.000,0.000,0.000,0,2,0,3,7,255,1125,200,238,1125
stim,117279,117279,0,5434279.647,0.788,0.265,0.442,-0.337,55,95,52,43,41,11,31,18,0,0.000,0,0,2.793,4.796,-2.780,0.220,-0.160,0.097,0.785,-0.602,2.854,3.854,-18.308,0.000,0.000,0.000,0.000,0,2,0,3,7,255,1125,200,243,1125
stim,117344,117344,0,5434284.647,0.788,0.264,0.443,-0.337,72,90,57,43,51,23,42,22,0,0.000,0,0,3.586,4.825,-3.580,-0.140,-0.160,0.106,0.786,-0.606,2.882,3.870,-18.276,0.000,0.000,0.000,0.000,0,2,0,3,7,255,1125,200,248,1125
stim,117344,117344,0,5434289.647,0.787,0.264,0.444,-0.337,83,93,73,56,37,0,37,18,0,0.000,0,0,3.708,4.927,-3.700,0.100,-0.220,0.105,0.787,-0.610,2.972,3.930,-18.276,0.000,0.000,0.000,0.000,0,2,0,3,7,255,1125,200,253,1125
stim,117344,117344,0,5434294.647,0.787,0.264,0.444,-0.337,87,95,11,45,39,1,22,13,0,0.000,0,0,4.321,4.952,-4.180,1.020,-0.400,0.105,0.789,-0.617,3.010,3.932,-18.286,0.000,0.000,0.000,0.000,0,2,0,3,7,255,1125,200,258,1125
stim,117359,117359,0,5434299.648,0.787,0.264,0.445,-0.336,44,57,77,33,27,3,71,41,0,0.000,0,0,4.470,4.986,-3.940,2.060,-0.460,0.110,0.794,-0.621,3.060,3.936,-18.332,0.000,0.000,0.000,0.000,0,2,0,3,7,255,1125,200,263,1125
stim,117359,117359,0,5434304.647,0.787,0.264,0.446,-0.336,73,61,55,63,21,1,41,41,0,0.000,0,0,4.469,5.052,-3.520,2.740,-0.280,0.107,0.797,-0.620,3.094,3.994,-18.362,0.000,0.000,0.000,0.000,0,2,0,3,7,255,1125,200,268,1125
stim,117359,117359,0,5434309.647,0.786,0.264,0.446,-0.336,83,92,49,53,18,9,31,17,0,0.000,0,0,5.025,5.052,-3.700,3.400,0.040,0.102,0.799,-0.621,3.094,3.994,-18.384,0.000,0.000,0.000,0.000,0,2,0,3,7,255,1125,200,273,1125
stim,117359,117359,0,5434314.647,0.786,0.264,0.447,-0.336,70,76,81,60,23,0,44,45,0,0.000,0,0,5.110,5.040,-3.640,3.580,0.220,0.101,0.798,-0.624,3.094,3.978,-18.418,0.000,0.000,0.000,0.000,0,2,0,3,7,255,1125,200,278,1125
stim,117359,117359,0,5434319.647,0.786,0.263,0.447,-0.336,64,57,56,71,23,0,31,35,0,0.000,0,0,4.484,5.017,-2.660,3.580,0.460,0.100,0.796,-0.618,3.068,3.970,-18.418,0.000,0.000,0.000,0.000,0,2,0,3,7,255,1125,200,283,1125
stim,117359,117359,0,5434324.648,0.786,0.263,0.448,-0.336,75,88,51,67,33,5,38,19,0,0.000,0,0,4.117,5.013,-1.860,3.580,0.820,0.095,0.795,-0.607,3.064,3.968,-18.380,0.000,0.000,0.000,0.000,0,2,0,3,7,255,1125,200,288,1125
stim,117359,117359,0,5434329.647,0.786,0.263,0.449,-0.336,59,73,51,35,45,5,55,19,0,0.000,0,0,3.602,4.954,-1.560,3.040,1.140,0.094,0.795,-0.603,2.966,3.968,-18.326,0.000,0.000,0.000,0.000,0,2,0,3,7,255,1125,200,293,1125
stim,117375,117375,0,5434334.647,0.785,0.263,0.449,-0.335,71,89,55,55,24,2,40,36,0,0.000,0,0,2.147,4.964,-1.320,1.320,1.060,0.104,0.794,-0.606,2.966,3.980,-18.304,0.000,0.000,0.000,0.000,0,2,0,3,7,255,1125,200,298,1125
stim,117391,117391,0,5434359.647,0.784,0.261,0.453,-0.335,81,79,46,61,37,9,35,19,0,0.000,0,0,5.258,5.279,-4.560,-1.480,-2.160,0.116,0.797,-0.627,3.266,4.148,-18.228,0.000,0.000,0.000,0.000,0,2,0,3,7,255,1125,200,323,1125
stim,117391,117391,0,5434364.647,0.783,0.261,0.454,-0.334,71,83,55,56,39,9,39,17,0,0.000,0,0,5.377,5.273,-4.860,-0.940,-2.100,0.108,0.799,-0.627,3.266,4.140,-18.312,0.000,0.000,0.000,0.000,0,2,0,3,7,255,1125,200,328,1125
stim,117456,117456,0,5434379.647,0.782,0.261,0.457,-0.334,61,72,81,41,37,7,57,0,0,0.000,0,0,5.614,5.144,-5.460,0.840,-1.000,0.103,0.786,-0.612,3.172,4.050,-18.252,0.000,0.000,0.000,0.000,0,2,0,3,7,255,1125,200,343,1125
stim,117456,117456,0,5434384.647,0.782,0.261,0.457,-0.334,59,68,72,40,33,11,91,25,0,0.000,0,0,5.707,5.144,-5.520,0.840,-1.180,0.105,0.782,-0.610,3.172,4.050,-18.172,0.000,0.000,0.000,0.000,0,2,0,3,7,255,1125,200,348,1125
stim,117456,117456,0,5434389.647,0.782,0.260,0.458,-0.333,81,111,87,63,27,0,37,41,0,0.000,0,0,5.505,5.149,-5.220,0.900,-1.500,0.102,0.782,-0.604,3.172,4.056,-18.114,0.000,0.000,0.000,0.000,0,2,0,3,7,255,1125,200,353,1125
stim,117456,117456,0,5434394.647,0.781,0.260,0.459,-0.333,59,74,95,85,23,0,62,52,0,0.000,0,0,5.758,5.126,-5.520,0.780,-1.440,0.096,0.779,-0.599,3.134,4.056,-18.088,0.000,0.000,0.000,0.000,0,2,0,3,7,255,1125,200,358,1125
stim,117456,117456,0,5434399.647,0.781,0.260,0.460,-0.333,83,90,49,44,39,11,61,12,0,0.000,0,0,6.183,5.068,-6.020,0.300,-1.380,0.094,0.777,-0.592,3.086,4.020,-18.056,0.000,0.000,0.000,0.000,0,2,0,3,7,255,1125,200,363,1125
stim,117456,117456,0,5434404.647,0.781,0.260,0.460,-0.333,71,75,84,3,40,5,37,43,0,0.000,0,0,6.135,5.057,-6.020,0.040,-1.180,0.096,0.779,-0.593,3.068,4.020,-18.010,0.000,0.000,0.000,0.000,0,2,0,3,7,255,1125,200,368,1125
stim,117456,117456,0,5434409.647,0.780,0.260,0.461,-0.333,69,71,80,48,44,2,61,29,0,0.000,0,0,5.079,5.078,-4.980,-0.020,-1.000,0.097,0.780,-0.596,3.068,4.046,-18.010,0.000,0.000,0.000,0.000,0,2,0,3,7,255,1125,200,373,1125
stim,117456,117456,0,5434414.647,0.780,0.260,0.462,-0.332,43,59,83,39,35,1,69,37,0,0.000,0,0,3.645,5.090,-3.580,0.360,-0.580,0.092,0.783,-0.594,3.068,4.062,-18.020,0.000,0.000,0.000,0.000,0,2,0,3,7,255,1125,200,378,1125
stim,117456,117456,0,5434419.647,0.780,0.259,0.463,-0.332,59,69,74,36,23,11,67,18,0,0.000,0,0,3.022,5.100,-2.840,1.020,0.160,0.091,0.784,-0.597,3.084,4.062,-18.044,0.000,0.000,0.000,0.000,0,2,0,3,7,255,1125,200,383,1125
stim,117456,117456,0,5434424.647,0.780,0.259,0.463,-0.332,56,69,83,42,27,18,69,31,0,0.000,0,0,2.546,5.086,-2.040,1.320,0.760,0.091,0.790,-0.593,3.060,4.062,-18.060,0.000,0.000,0.000,0.000,0,2,0,3,7,255,1125,200,388,1125
stim,117456,117456,0,5434429.647,0.779,0.259,0.464,-0.332,73,75,24,47,39,0,41,20,0,0.000,0,0,2.358,5.142,-1.320,1.320,1.440,0.096,0.788,-0.601,3.084,4.114,-18.074,0.000,0.000,0.000,0.000,0,2,0,3,7,255,1125,200,393,1125
stim,117471,117471,0,5434434.647,0.779,0.259,0.465,-0.332,84,73,89,58,0,0,72,39,0,0.000,0,0,2.202,5.179,-0.820,1.320,1.560,0.099,0.785,-0.609,3.146,4.114,-18.078,0.000,0.000,0.000,0.000,0,2,0,3,7,255,1125,200,398,1125
stim,117471,117471,0,5434439.648,0.779,0.258,0.465,-0.332,55,63,82,41,43,0,69,33,0,0.000,0,0,2.104,5.240,-0.460,1.520,1.380,0.101,0.785,-0.607,3.238,4.120,-18.078,0.000,0.000,0.000,0.000,0,2,0,3,7,255,1125,200,403,1125
stim,117471,117471,0,5434444.647,0.778,0.258,0.466,-0.332,69,89,51,33,39,3,55,8,0,0.000,0,0,2.214,5.257,-0.520,1.700,1.320,0.102,0.785,-0.604,3.238,4.142,-18.056,0.000,0.000,0.000,0.000,0,2,0,3,7,255,1125,200,408,1125
stim,117487,117487,0,5434459.647,0.777,0.257,0.468,-0.332,69,84,53,59,41,8,39,20,0,0.000,0,0,1.620,5.336,-1.380,-0.800,-0.280,0.111,0.777,-0.603,3.286,4.204,-17.902,0.000,0.000,0.000,0.000,0,2,0,3,7,255,1125,200,423,1125
stim,117487,117487,0,5434464.647,0.777,0.257,0.469,-0.331,70,88,47,61,39,3,33,19,0,0.000,0,0,2.209,5.363,-1.380,-1.360,-1.060,0.110,0.780,-0.608,3.314,4.216,-17.902,0.000,0.000,0.000,0.000,0,2,0,3,7,255,1125,200,428,1125
stim,117487,117487,0,5434469.647,0.777,0.257,0.470,-0.331,77,85,51,67,43,5,31,20,0,0.000,0,0,2.795,5.385,-1.620,-1.660,-1.560,0.108,0.780,-0.618,3.350,4.216,-17.942,0.000,0.000,0.000,0.000,0,2,0,3,7,255,1125,200,433,1125
stim,117487,117487,0,5434474.647,0.776,0.256,0.471,-0.331,75,81,51,63,37,5,37,22,0,0.000,0,0,3.130,5.401,-1.920,-1.480,-1.980,0.103,0.782,-0.618,3.406,4.192,-17.990,0.000,0.000,0.000,0.000,0,2,0,3,7,255,1125,200,438,1125
stim,117487,117487,0,5434479.647,0.776,0.256,0.472,-0.331,89,100,53,63,24,0,42,25,0,0.000,0,0,3.120,5.401,-2.420,-0.800,-1.800,0.096,0.788,-0.612,3.406,4.192,-18.024,0.000,0.000,0.000,0.000,0,2,0,3,7,255,1125,200,443,1125
stim,117535,117535,0,5434484.647,0.776,0.256,0.473,-0.331,55,63,47,39,47,9,54,16,0,0.000,0,0,3.466,5.379,-3.140,-0.500,-1.380,0.095,0.784,-0.618,3.386,4.180,-18.048,0.000,0.000,0.000,0.000,0,2,0,3,7,255,1125,200,448,1125
stim,117599,117599,0,5434559.647,0.768,0.248,0.491,-0.328,88,93,59,71,27,0,51,28,0,0.000,0,0,1.762,5.819,1.300,0.540,1.060,0.117,0.791,-0.611,3.604,4.568,-17.806,0.000,0.000,0.000,0.000,0,2,0,3,7,255,1125,200,523,1125
stim,117647,117647,0,5434564.647,0.768,0.248,0.492,-0.328,83,93,53,39,37,1,53,16,0,0.000,0,0,1.192,5.848,0.940,0.220,0.700,0.118,0.790,-0.612,3.604,4.606,-17.754,0.000,0.000,0.000,0.000,0,2,0,3,7,255,1125,200,528,1125
stim,117647,117647,0,5434569.647,0.767,0.247,0.494,-0.327,57,69,71,39,37,1,59,43,0,0.000,0,0,0.793,5.859,0.700,0.300,0.220,0.114,0.787,-0.608,3.608,4.616,-17.734,0.000,0.000,0.000,0.000,0,2,0,3,7,255,1125,200,533,1125
stim,117647,117647,0,5434574.647,0.766,0.246,0.497,-0.327,59,71,79,53,22,18,63,33,0,0.000,0,0,0.585,5.867,-0.160,0.540,-0.160,0.114,0.789,-0.608,3.622,4.616,-17.688,0.000,0.000,0.000,0.000,0,2,0,3,7,255,1125,200,538,1125
stim,117647,117647,0,5434579.647,0.765,0.246,0.497,-0.327,57,72,57,38,35,10,57,11,0,0.000,0,0,0.909,5.900,-0.400,0.420,-0.700,0.115,0.789,-0.611,3.626,4.654,-17.670,0.000,0.000,0.000,0.000,0,2,0,3,7,255,1125,200,543,1125
stim,117647,117647,0,5434584.647,0.765,0.245,0.498,-0.327,69,93,53,39,26,7,39,14,0,0.000,0,0,1.282,5.905,0.080,0.220,-1.260,0.109,0.789,-0.610,3.634,4.654,-17.670,0.000,0.000,0.000,0.000,0,2,0,3,7,255,1125,200,548,1125
stim,117647,117647,0,5434589.647,0.764,0.245,0.499,-0.326,78,69,71,62,29,0,31,40,0,0.000,0,0,1.585,5.895,0.280,0.040,-1.560,0.100,0.789,-0.610,3.634,4.642,-17.686,0.000,0.000,0.000,0.000,0,2,0,3,7,255,1125,200,553,1125
stim,117647,117647,0,5434594.647,0.764,0.245,0.500,-0.326,60,69,82,63,27,0,68,43,0,0.000,0,0,1.777,5.829,0.580,-0.020,-1.680,0.093,0.790,-0.607,3.596,4.588,-17.720,0.000,0.000,0.000,0.000,0,2,0,3,7,255,1125,200,558,1125
stim,117647,117647,0,5434599.647,0.764,0.244,0.501,-0.326,63,91,69,41,41,2,45,14,0,0.000,0,0,1.788,5.781,1.060,-0.020,-1.440,0.089,0.791,-0.606,3.546,4.566,-17.736,0.000,0.000,0.000,0.000,0,2,0,3,7,255,1125,200,563,1125
stim,117647,117647,0,5434604.647,0.763,0.244,0.502,-0.326,47,67,85,39,35,1,72,35,0,0.000,0,0,2.204,5.768,1.860,-0.080,-1.180,0.087,0.789,-0.606,3.530,4.562,-17.736,0.000,0.000,0.000,0.000,0,2,0,3,7,255,1125,200,568,1125
stim,117647,117647,0,5434609.647,0.763,0.243,0.502,-0.326,84,91,57,39,47,13,53,11,0,0.000,0,0,2.330,5.754,2.220,0.100,-0.700,0.086,0.788,-0.606,3.530,4.544,-17.730,0.000,0.000,0.000,0.000,0,2,0,3,7,255,1125,200,573,1125
stim,117663,117663,0,5434614.647,0.763,0.243,0.503,-0.326,85,85,51,9,33,6,46,9,0,0.000,0,0,2.317,5.760,2.280,0.300,-0.280,0.087,0.788,-0.605,3.540,4.544,-17.720,0.000,0.000,0.000,0.000,0,2,0,3,7,255,1125,200,578,1125
stim,117663,117663,0,5434619.647,0.762,0.242,0.504,-0.325,83,85,45,42,39,2,51,0,0,0.000,0,0,2.253,5.779,2.160,0.600,0.220,0.086,0.791,-0.609,3.542,4.566,-17.720,0.000,0.000,0.000,0.000,0,2,0,3,7,255,1125,200,583,1125
stim,117663,117663,0,5434624.647,0.762,0.242,0.505,-0.325,55,66,58,43,37,0,47,52,0,0.000,0,0,2.558,5.779,2.160,1.140,0.760,0.082,0.791,-0.606,3.542,4.566,-17.730,0.000,0.000,0.000,0.000,0,2,0,3,7,255,1125,200,588,1125
stim,117663,117663,0,5434629.647,0.762,0.242,0.505,-0.325,55,69,55,26,29,21,55,15,0,0.000,0,0,2.968,5.785,1.920,1.580,1.620,0.083,0.793,-0.606,3.534,4.580,-17.732,0.000,0.000,0.000,0.000,0,2,0,3,7,255,1125,200,593,1125
stim,117759,117759,0,5434684.647,0.757,0.238,0.514,-0.324,77,90,54,63,43,8,41,24,0,0.000,0,0,2.998,6.340,-2.040,-2.160,-0.400,0.130,0.798,-0.628,3.934,4.972,-17.526,0.000,0.000,0.000,0.000,0,2,0,3,7,255,1125,200,648,1125
stim,117759,117759,0,5434689.647,0.757,0.238,0.515,-0.324,43,63,75,59,39,0,55,35,0,0.000,0,0,3.040,6.428,-2.300,-1.600,-1.180,0.132,0.800,-0.632,4.004,5.028,-17.526,0.000,0.000,0.000,0.000,0,2,0,3,7,255,1125,200,653,1125
stim,117759,117759,0,5434694.647,0.756,0.238,0.516,-0.324,42,55,81,31,28,0,69,35,0,0.000,0,0,3.388,6.477,-2.720,-1.120,-1.680,0.129,0.801,-0.632,4.046,5.058,-17.528,0.000,0.000,0.000,0.000,0,2,0,3,7,255,1125,200,658,1125
stim,117759,117759,0,5434699.647,0.756,0.238,0.517,-0.324,88,91,51,75,2,2,39,21,0,0.000,0,0,3.493,6.477,-2.660,-0.440,-2.220,0.123,0.801,-0.629,4.046,5.058,-17.540,0.000,0.000,0.000,0.000,0,2,0,3,7,255,1125,200,663,1125
stim,117759,117759,0,5434704.647,0.756,0.238,0.518,-0.323,92,93,71,69,19,0,44,26,0,0.000,0,0,3.827,6.426,-2.840,0.360,-2.540,0.119,0.798,-0.622,4.006,5.024,-17.540,0.000,0.000,0.000,0.000,0,2,0,3,7,255,1125,200,668,1125
stim,117759,117759,0,5434709.647,0.755,0.237,0.519,-0.323,83,70,83,69,21,3,67,39,0,0.000,0,0,4.162,6.368,-2.720,1.080,-2.960,0.117,0.793,-0.619,3.946,4.998,-17.504,0.000,0.000,0.000,0.000,0,2,0,3,7,255,1125,200,673,1125
stim,117759,117759,0,5434714.647,0.755,0.237,0.520,-0.323,101,18,54,69,18,1,37,0,0,0.000,0,0,3.957,6.359,-2.480,1.200,-2.840,0.117,0.797,-0.606,3.932,4.998,-17.452,0.000,0.000,0.000,0.000,0,2,0,3,7,255,1125,200,678,1125
stim,117759,117759,0,5434719.648,0.754,0.237,0.521,-0.322,54,73,69,37,37,28,52,11,0,0.000,0,0,3.053,6.280,-1.560,0.660,-2.540,0.115,0.789,-0.603,3.828,4.978,-17.414,0.000,0.000,0.000,0.000,0,2,0,3,7,255,1125,200,683,1125
stim,117775,117775,0,5434724.647,0.754,0.236,0.521,-0.322,59,95,83,38,19,2,55,31,0,0.000,0,0,2.801,6.275,-0.640,0.600,-2.660,0.110,0.786,-0.603,3.820,4.978,-17.340,0.000,0.000,0.000,0.000,0,2,0,3,7,255,1125,200,688,1125
stim,117775,117775,0,5434729.647,0.754,0.236,0.522,-0.322,85,107,51,51,42,11,35,25,0,0.000,0,0,2.514,6.253,0.200,0.360,-2.480,0.105,0.791,-0.599,3.818,4.952,-17.340,0.000,0.000,0.000,0.000,0,2,0,3,7,255,1125,200,693,1125
stim,117775,117775,0,5434734.647,0.753,0.236,0.523,-0.322,81,88,61,47,31,2,45,20,0,0.000,0,0,2.424,6.208,0.820,-0.080,-2.280,0.099,0.792,-0.597,3.762,4.938,-17.356,0.000,0.000,0.000,0.000,0,2,0,3,7,255,1125,200,698,1125
stim,117775,117775,0,5434739.647,0.753,0.235,0.524,-0.321,82,71,85,69,23,0,47,43,0,0.000,0,0,2.358,6.183,1.120,-0.380,-2.040,0.097,0.792,-0.598,3.732,4.930,-17.376,0.000,0.000,0.000,0.000,0,2,0,3,7,255,1125,200,703,1125
stim,117775,117775,0,5434744.647,0.752,0.235,0.525,-0.321,44,84,81,44,28,0,71,43,0,0.000,0,0,2.225,6.183,1.240,-0.620,-1.740,0.095,0.788,-0.599,3.732,4.930,-17.376,0.000,0.000,0.000,0.000,0,2,0,3,7,255,1125,200,708,1125
stim,117775,117775,0,5434749.647,0.752,0.234,0.526,-0.321,59,60,83,55,19,7,37,39,0,0.000,0,0,2.329,6.161,1.620,-0.740,-1.500,0.092,0.788,-0.596,3.732,4.902,-17.356,0.000,0.000,0.000,0.000,0,2,0,3,7,255,1125,200,713,1125
stim,117855,117855,0,5434794.647,0.748,0.232,0.535,-0.318,74,91,51,45,37,0,41,17,0,0.000,0,0,8.222,6.807,-5.340,-1.180,-6.140,0.141,0.798,-0.630,4.242,5.324,-17.178,0.000,0.000,0.000,0.000,0,2,0,3,7,255,1125,200,758,1125
stim,117855,117855,0,5434799.647,0.747,0.232,0.536,-0.317,52,109,55,38,41,0,57,13,0,0.000,0,0,8.755,6.860,-5.160,-0.680,-7.040,0.141,0.802,-0.630,4.296,5.348,-17.180,0.000,0.000,0.000,0.000,0,2,0,3,7,255,1125,200,763,1125
stim,117855,117855,0,5434804.647,0.747,0.231,0.537,-0.317,77,69,53,55,28,0,45,44,0,0.000,0,0,9.457,6.886,-5.340,-0.620,-7.780,0.140,0.810,-0.633,4.300,5.378,-17.186,0.000,0.000,0.000,0.000,0,2,0,3,7,255,1125,200,768,1125
stim,117855,117855,0,5434809.647,0.747,0.231,0.538,-0.316,59,69,59,61,21,9,77,42,0,0.000,0,0,10.241,6.939,-5.340,-1.660,-8.580,0.139,0.815,-0.633,4.318,5.432,-17.246,0.000,0.000,0.000,0.000,0,2,0,3,7,255,1125,200,773,1125
stim,117855,117855,0,5434814.647,0.746,0.231,0.539,-0.316,55,86,53,0,29,16,57,2,0,0.000,0,0,11.212,6.943,-4.980,-2.460,-9.740,0.146,0.800,-0.635,4.324,5.432,-17.246,0.000,0.000,0.000,0.000,0,2,0,3,7,255,1125,200,778,1125
stim,117855,117855,0,5434819.647,0.746,0.230,0.540,-0.315,43,59,75,38,69,9,61,16,0,0.000,0,0,13.172,6.984,-2.840,-3.560,-12.360,0.157,0.794,-0.618,4.338,5.474,-17.112,0.000,0.000,0.000,0.000,0,2,0,3,7,255,1125,200,783,1125
stim,117855,117855,0,5434824.647,0.745,0.230,0.541,-0.314,47,59,84,59,31,0,71,55,0,0.000,0,0,17.255,7.014,-2.420,-7.520,-15.340,0.152,0.798,-0.611,4.338,5.512,-16.924,0.000,0.000,0.000,0.000,0,2,0,3,7,255,1125,200,788,1125
stim,117855,117855,0,5434829.647,0.745,0.229,0.543,-0.314,85,93,51,59,19,0,35,19,0,0.000,0,0,21.345,6.993,-2.180,-10.700,-18.340,0.143,0.795,-0.617,4.304,5.512,-16.924,0.000,0.000,0.000,0.000,0,2,0,3,7,255,1125,200,793,1125
stim,117888,117888,0,5434854.647,0.742,0.226,0.550,-0.309,19,69,79,39,41,0,60,39,0,0.000,0,0,28.164,6.951,-2.600,-14.960,-23.720,0.113,0.815,-0.623,4.260,5.492,-17.076,0.000,0.000,0.000,0.000,0,2,0,3,7,255,1125,200,818,1125
stim,117952,117952,0,5434874.647,0.741,0.223,0.555,-0.306,62,59,47,69,11,0,40,45,0,0.000,0,0,19.188,6.912,-4.180,-6.060,-17.720,0.080,0.827,-0.630,4.290,5.420,-17.362,0.000,0.000,0.000,0.000,0,2,0,3,7,255,1125,200,838,1125
stim,117952,117952,0,5434879.647,0.740,0.223,0.556,-0.305,40,55,55,37,33,23,56,9,0,0.000,0,0,16.878,6.881,-4.420,-3.800,-15.840,0.077,0.823,-0.629,4.254,5.408,-17.362,0.000,0.000,0.000,0.000,0,2,0,3,7,255,1125,200,843,1125
stim,117952,117952,0,5434884.647,0.740,0.223,0.557,-0.304,58,61,75,54,28,0,45,39,0,0.000,0,0,15.373,6.856,-4.500,-2.020,-14.560,0.078,0.819,-0.626,4.254,5.376,-17.338,0.000,0.000,0.000,0.000,0,2,0,3,7,255,1125,200,848,1125
stim,117952,117952,0,5434889.647,0.740,0.222,0.558,-0.303,63,93,51,50,30,5,35,16,0,0.000,0,0,14.496,6.854,-4.500,-0.740,-13.760,0.076,0.816,-0.613,4.254,5.374,-17.278,0.000,0.000,0.000,0.000,0,2,0,3,7,255,1125,200,853,1125
stim,118159,118159,0,5435039.647,0.725,0.216,0.589,-0.284,48,59,47,48,44,5,54,39,0,0.000,0,0,6.309,6.845,-2.540,-1.240,-5.640,0.061,0.790,-0.585,4.304,5.322,-16.574,0.000,0.000,0.000,0.000,0,2,0,3,7,255,1125,200,1003,1125
stim,118159,118159,0,5435044.647,0.725,0.215,0.590,-0.284,73,61,67,69,14,1,71,39,0,0.000,0,0,7.772,6.962,-2.420,-2.580,-6.920,0.068,0.789,-0.590,4.350,5.436,-16.500,0.000,0.000,0.000,0.000,0,2,0,3,7,255,1125,200,1008,1125
stim,118159,118159,0,5435049.647,0.724,0.215,0.591,-0.283,56,73,63,38,35,0,55,11,0,0.000,0,0,9.401,7.051,-2.360,-3.500,-8.400,0.071,0.791,-0.596,4.434,5.482,-16.444,0.000,0.000,0.000,0.000,0,2,0,3,7,255,1125,200,1013,1125
stim,118159,118159,0,5435054.647,0.723,0.214,0.592,-0.282,85,82,53,58,37,4,41,17,0,0.000,0,0,10.959,7.132,-2.600,-4.160,-9.800,0.074,0.795,-0.598,4.514,5.522,-16.438,0.000,0.000,0.000,0.000,0,2,0,3,7,255,1125,200,1018,1125
stim,118159,118159,0,5435059.647,0.723,0.214,0.594,-0.282,47,75,80,31,55,6,57,35,0,0.000,0,0,12.098,7.203,-2.480,-4.900,-10.780,0.069,0.798,-0.604,4.550,5.584,-16.438,0.000,0.000,0.000,0.000,0,2,0,3,7,255,1125,200,1023,1125
stim,118159,118159,1,5435064.647,0.722,0.214,0.595,-0.281,57,95,44,47,35,7,55,25,0,0.000,0,0,12.863,7.234,-2.040,-5.260,-11.560,0.066,0.802,-0.604,4.596,5.586,-16.476,0.000,0.000,0.000,0.000,0,2,1,3,7,255,1125,200,1028,1125
stim,118159,118159,1,5435069.647,0.721,0.213,0.596,-0.280,84,76,89,27,24,13,31,33,0,0.000,0,0,13.865,7.249,-1.380,-5.880,-12.480,0.063,0.803,-0.599,4.596,5.606,-16.488,0.000,0.000,0.000,0.000,0,2,1,3,7,255,1125,200,1033,1125
stim,118159,118159,1,5435074.647,0.721,0.212,0.598,-0.280,75,74,56,67,36,0,39,44,0,0.000,0,0,14.937,7.227,-1.260,-6.720,-13.280,0.060,0.803,-0.594,4.556,5.610,-16.488,0.000,0.000,0.000,0.000,0,2,1,3,7,255,1125,200,1038,1125
stim,118159,118159,1,5435079.647,0.720,0.212,0.599,-0.279,61,72,59,45,45,2,45,47,0,0.000,0,0,15.985,7.215,-1.140,-7.520,-14.060,0.059,0.802,-0.593,4.522,5.622,-16.464,0.000,0.000,0.000,0.000,0,2,1,3,7,255,1125,200,1043,1125
stim,118159,118159,1,5435084.647,0.719,0.211,0.600,-0.278,53,61,75,27,43,6,54,1,0,0.000,0,0,17.215,7.218,-0.700,-8.560,-14.920,0.061,0.800,-0.595,4.522,5.626,-16.438,0.000,0.000,0.000,0.000,0,2,1,3,7,255,1125,200,1048,1125
stim,118159,118159,1,5435089.647,0.719,0.211,0.602,-0.277,76,84,55,61,43,9,41,21,0,0.000,0,0,18.362,7.226,0.400,-9.480,-15.720,0.054,0.804,-0.588,4.522,5.636,-16.414,0.000,0.000,0.000,0.000,0,2,1,3,7,255,1125,200,1053,1125
stim,118159,118159,1,5435094.647,0.718,0.210,0.603,-0.277,107,59,82,69,28,0,45,43,0,0.000,0,0,18.844,7.206,0.820,-10.080,-15.900,0.045,0.804,-0.585,4.490,5.636,-16.414,0.000,0.000,0.000,0.000,0,2,1,3,7,255,1125,200,1058,1125
stim,118175,118175,1,5435099.647,0.717,0.209,0.604,-0.276,61,69,69,61,20,0,47,39,0,0.000,0,0,19.257,7.179,1.500,-10.760,-15.900,0.044,0.805,-0.581,4.442,5.640,-16.418,0.000,0.000,0.000,0.000,0,2,1,3,7,255,1125,200,1063,1125
stim,118175,118175,1,5435104.647,0.717,0.208,0.606,-0.275,72,127,50,59,29,0,37,24,0,0.000,0,0,19.508,7.160,2.220,-11.420,-15.660,0.042,0.804,-0.580,4.414,5.638,-16.418,0.000,0.000,0.000,0.000,0,2,1,3,7,255,1125,200,1068,1125
stim,118175,118175,1,5435109.647,0.716,0.208,0.607,-0.274,37,87,76,36,45,0,69,57,0,0.000,0,0,19.646,7.157,3.440,-11.860,-15.280,0.038,0.810,-0.572,4.406,5.640,-16.410,0.000,0.000,0.000,0.000,0,2,1,3,7,255,1125,200,1073,1125
stim,118175,118175,1,5435114.647,0.716,0.207,0.608,-0.274,76,84,49,42,40,4,52,12,0,0.000,0,0,19.177,7.164,4.540,-11.920,-14.320,0.035,0.812,-0.575,4.356,5.688,-16.410,0.000,0.000,0.000,0.000,0,2,1,3,7,255,1125,200,1078,1125
stim,118175,118175,1,5435119.647,0.715,0.206,0.610,-0.273,85,101,47,31,27,13,45,13,0,0.000,0,0,18.544,7.174,5.760,-11.860,-13.040,0.035,0.816,-0.588,4.356,5.700,-16.432,0.000,0.000,0.000,0.000,0,2,1,3,7,255,1125,200,1083,1125
stim,118175,118175,1,5435134.647,0.713,0.203,0.614,-0.272,60,75,46,30,42,6,51,12,0,0.000,0,0,16.694,7.456,8.320,-10.760,-9.680,0.042,0.823,-0.602,4.620,5.852,-16.466,0.000,0.000,0.000,0.000,0,2,1,3,7,255,1125,200,1098,1125
stim,118175,118175,1,5435139.647,0.712,0.203,0.615,-0.272,57,74,71,33,45,8,54,13,0,0.000,0,0,16.020,7.402,6.980,-11.120,-9.180,0.044,0.800,-0.613,4.644,5.764,-16.442,0.000,0.000,0.000,0.000,0,2,1,3,7,255,1125,200,1103,1125
stim,118191,118191,1,5435144.647,0.711,0.202,0.616,-0.271,86,93,45,59,10,17,26,22,0,0.000,0,0,14.780,7.474,2.460,-11.120,-9.420,0.052,0.791,-0.615,4.794,5.734,-16.294,0.000,0.000,0.000,0.000,0,2,1,3,7,255,1125,200,1108,1125
stim,118191,118191,1,5435149.647,0.710,0.201,0.618,-0.271,73,60,57,61,30,0,45,6,0,0.000,0,0,15.637,7.515,0.940,-11.420,-10.640,0.057,0.806,-0.618,4.858,5.734,-16.200,0.000,0.000,0.000,0.000,0,2,1,3,7,255,1125,200,1113,1125
stim,118191,118191,1,5435154.648,0.710,0.201,0.619,-0.270,61,69,83,45,42,0,67,51,0,0.000,0,0,16.352,7.642,1.980,-11.060,-11.880,0.053,0.807,-0.616,4.876,5.884,-16.200,0.000,0.000,0.000,0.000,0,2,1,3,7,255,1125,200,1118,1125
stim,118255,118255,1,5435169.647,0.707,0.199,0.623,-0.268,55,85,79,30,43,5,69,22,0,0.000,0,0,17.383,7.709,-2.300,-9.960,-14.060,0.061,0.802,-0.614,4.904,5.948,-16.092,0.000,0.000,0.000,0.000,0,2,1,3,7,255,1125,200,8,1125
stim,118255,118255,1,5435174.647,0.707,0.198,0.625,-0.267,57,73,29,33,33,0,55,23,0,0.000,0,0,17.880,7.725,-3.080,-9.360,-14.920,0.056,0.807,-0.611,4.898,5.974,-16.062,0.000,0.000,0.000,0.000,0,2,1,3,7,255,1125,200,13,1125
stim,118255,118255,1,5435179.647,0.706,0.198,0.626,-0.266,90,103,51,69,29,0,37,25,0,0.000,0,0,18.699,7.705,-3.760,-9.300,-15.780,0.049,0.806,-0.608,4.898,5.948,-16.062,0.000,0.000,0.000,0.000,0,2,1,3,7,255,1125,200,18,1125
stim,118255,118255,1,5435184.647,0.705,0.197,0.627,-0.265,64,73,94,29,44,0,37,27,0,0.000,0,0,19.690,7.684,-4.180,-9.660,-16.640,0.039,0.808,-0.599,4.864,5.948,-16.070,0.000,0.000,0.000,0.000,0,2,1,3,7,255,1125,200,23,1125
stim,118255,118255,1,5435189.647,0.704,0.197,0.629,-0.264,57,77,67,79,17,0,87,57,0,0.000,0,0,21.036,7.609,-4.920,-10.520,-17.540,0.034,0.800,-0.599,4.778,5.922,-16.070,0.000,0.000,0.000,0.000,0,2,1,3,7,255,1125,200,28,1125
stim,118255,118255,1,5435194.647,0.703,0.196,0.630,-0.263,88,91,52,63,25,0,26,41,0,0.000,0,0,22.294,7.555,-4.680,-11.300,-18.640,0.029,0.800,-0.599,4.778,5.852,-16.066,0.000,0.000,0.000,0.000,0,2,1,3,7,255,1125,200,33,1125
stim,118255,118255,1,5435199.647,0.703,0.196,0.632,-0.262,46,50,72,48,45,0,78,16,0,0.000,0,0,22.889,7.539,-3.580,-11.740,-19.320,0.016,0.801,-0.595,4.778,5.832,-16.066,0.000,0.000,0.000,0.000,0,2,1,3,7,255,1125,200,38,1125
stim,118255,118255,1,5435204.647,0.702,0.195,0.633,-0.261,55,33,81,37,4,0,60,31,0,0.000,0,0,22.847,7.472,-2.840,-11.860,-19.320,0.004,0.801,-0.592,4.726,5.788,-16.126,0.000,0.000,0.000,0.000,0,2,1,3,7,255,1125,200,43,1125
stim,118255,118255,1,5435209.647,0.701,0.195,0.634,-0.260,57,63,81,48,19,1,61,33,0,0.000,0,0,22.279,7.403,-1.860,-11.680,-18.880,-0.005,0.798,-0.586,4.688,5.730,-16.178,0.000,0.000,0.000,0.000,0,2,1,3,7,255,1125,200,48,1125
stim,118255,118255,1,5435214.647,0.701,0.194,0.636,-0.260,80,117,53,35,18,4,0,23,0,0.000,0,0,21.127,7.335,-0.880,-10.760,-18.160,-0.012,0.802,-0.578,4.622,5.696,-16.186,0.000,0.000,0.000,0.000,0,2,1,3,7,255,1125,200,53,1125
stim,118255,118255,1,5435219.647,0.700,0.193,0.637,-0.259,57,69,98,55,52,0,55,29,0,0.000,0,0,19.512,7.328,-0.460,-10.080,-16.700,-0.015,0.802,-0.586,4.622,5.686,-16.208,0.000,0.000,0.000,0.000,0,2,1,3,7,255,1125,200,58,1125
stim,118255,118255,1,5435224.647,0.699,0.193,0.638,-0.258,69,75,81,69,22,17,75,16,0,0.000,0,0,18.197,7.329,0.400,-9.360,-15.600,-0.018,0.798,-0.591,4.624,5.686,-16.214,0.000,0.000,0.000,0.000,0,2,1,3,7,255,1125,200,63,1125
stim,118255,118255,1,5435229.647,0.698,0.192,0.640,-0.257,86,93,83,69,12,13,31,43,0,0.000,0,0,17.034,7.329,0.580,-8.620,-14.680,-0.022,0.804,-0.584,4.624,5.686,-16.222,0.000,0.000,0.000,0.000,0,2,1,3,7,255,1125,200,68,1125
stim,118271,118271,1,5435234.647,0.698,0.191,0.641,-0.256,53,87,42,30,40,12,33,13,0,0.000,0,0,16.020,7.340,0.280,-8.200,-13.760,-0.026,0.803,-0.587,4.652,5.678,-16.238,0.000,0.000,0.000,0.000,0,2,1,3,7,255,1125,200,73,1125
stim,118271,118271,1,5435239.647,0.697,0.191,0.642,-0.256,70,103,43,61,40,7,56,25,0,0.000,0,0,15.567,7.340,-0.220,-8.020,-13.340,-0.024,0.797,-0.593,4.652,5.678,-16.238,0.000,0.000,0.000,0.000,0,2,1,3,7,255,1125,200,78,1125
stim,118271,118271,1,5435244.647,0.696,0.190,0.644,-0.255,105,76,54,59,18,0,39,22,0,0.000,0,0,15.196,7.378,-1.260,-7.700,-13.040,-0.023,0.795,-0.592,4.726,5.666,-16.180,0.000,0.000,0.000,0.000,0,2,1,3,7,255,1125,200,83,1125
stim,118271,118271,1,5435249.647,0.695,0.190,0.645,-0.254,63,103,22,37,39,4,55,11,0,0.000,0,0,14.636,7.390,-1.920,-6.980,-12.720,-0.022,0.799,-0.593,4.744,5.666,-16.134,0.000,0.000,0.000,0.000,0,2,1,3,7,255,1125,200,88,1125
stim,118271,118271,1,5435254.647,0.694,0.189,0.646,-0.253,63,85,51,31,31,0,55,12,0,0.000,0,0,13.766,7.424,-1.920,-6.120,-12.180,-0.024,0.802,-0.586,4.744,5.710,-16.126,0.000,0.000,0.000,0.000,0,2,1,3,7,255,1125,200,93,1125
stim,118271,118271,1,5435259.647,0.694,0.189,0.648,-0.252,71,85,47,61,33,0,30,22,0,0.000,0,0,12.653,7.409,-2.240,-5.320,-11.260,-0.026,0.798,-0.582,4.712,5.718,-16.116,0.000,0.000,0.000,0.000,0,2,1,3,7,255,1125,200,98,1125
stim,118271,118271,0,5435264.647,0.693,0.189,0.649,-0.252,71,83,47,56,11,0,39,18,0,0.000,0,0,12.286,7.409,-2.780,-5.320,-10.720,-0.028,0.791,-0.587,4.712,5.718,-16.076,0.000,0.000,0.000,0.000,0,2,0,3,7,255,1125,200,103,1125
stim,118273,118273,0,5435269.647,0.692,0.188,0.650,-0.251,77,79,50,59,22,5,38,22,0,0.000,0,0,12.031,7.399,-3.460,-4.960,-10.400,-0.027,0.792,-0.583,4.732,5.688,-16.032,0.000,0.000,0.000,0.000,0,2,0,3,7,255,1125,200,108,1125
stim,118335,118335,0,5435284.647,0.690,0.188,0.654,-0.249,40,0,64,31,43,2,67,28,0,0.000,0,0,10.241,7.534,-5.280,-3.560,-8.020,-0.026,0.798,-0.602,4.870,5.748,-16.048,0.000,0.000,0.000,0.000,0,2,0,3,7,255,1125,200,123,1125
stim,118351,118351,0,5435294.647,0.688,0.187,0.656,-0.247,92,69,52,61,20,0,23,41,0,0.000,0,0,8.971,7.588,-4.620,-2.020,-7.420,-0.025,0.799,-0.594,4.932,5.766,-15.976,0.000,0.000,0.000,0.000,0,2,0,3,7,255,1125,200,133,1125
stim,118351,118351,0,5435299.647,0.687,0.187,0.657,-0.246,55,85,79,39,51,17,71,18,0,0.000,0,0,8.731,7.600,-4.180,-2.340,-7.300,-0.021,0.793,-0.597,4.932,5.782,-15.938,0.000,0.000,0.000,0.000,0,2,0,3,7,255,1125,200,138,1125
stim,118351,118351,0,5435304.647,0.687,0.187,0.658,-0.246,43,59,75,39,28,0,59,29,0,0.000,0,0,8.956,7.643,-3.520,-2.700,-7.780,-0.020,0.793,-0.596,4.978,5.800,-15.856,0.000,0.000,0.000,0.000,0,2,0,3,7,255,1125,200,143,1125
stim,118351,118351,0,5435309.647,0.686,0.186,0.660,-0.245,67,83,51,39,43,7,55,20,0,0.000,0,0,9.443,7.643,-3.020,-3.240,-8.340,-0.024,0.795,-0.592,4.978,5.800,-15.832,0.000,0.000,0.000,0.000,0,2,0,3,7,255,1125,200,148,1125
stim,118383,118383,0,5435344.647,0.680,0.184,0.667,-0.241,85,69,77,51,21,0,40,39,0,0.000,0,0,6.481,7.534,2.900,-2.520,-5.220,-0.040,0.791,-0.573,4.832,5.780,-15.762,0.000,0.000,0.000,0.000,0,2,0,3,7,255,1125,200,183,1125
stim,118383,118383,0,5435349.647,0.680,0.183,0.668,-0.240,64,93,45,41,40,2,75,0,0,0.000,0,0,6.433,7.553,2.400,-3.000,-5.160,-0.029,0.792,-0.573,4.862,5.780,-15.734,0.000,0.000,0.000,0.000,0,2,0,3,7,255,1125,200,188,1125
stim,118383,118383,0,5435354.647,0.679,0.183,0.669,-0.240,73,73,85,56,27,0,73,33,0,0.000,0,0,7.468,7.611,2.340,-4.220,-5.700,-0.020,0.786,-0.578,4.862,5.856,-15.640,0.000,0.000,0.000,0.000,0,2,0,3,7,255,1125,200,193,1125
stim,118448,118448,0,5435389.647,0.672,0.179,0.679,-0.235,55,62,69,33,53,0,53,23,0,0.000,0,0,17.474,7.924,1.800,-12.340,-12.240,-0.047,0.811,-0.600,5.158,6.016,-15.610,0.000,0.000,0.000,0.000,0,2,0,3,7,255,1125,200,228,1125
stim,118448,118448,0,5435394.647,0.671,0.179,0.680,-0.234,61,71,75,59,5,0,39,43,0,0.000,0,0,17.553,7.944,2.720,-12.460,-12.060,-0.019,0.815,-0.604,5.178,6.024,-15.610,0.000,0.000,0.000,0.000,0,2,0,3,7,255,1125,200,233,1125
stim,118448,118448,0,5435399.647,0.671,0.178,0.681,-0.233,85,85,49,37,36,2,36,10,0,0.000,0,0,17.156,7.975,3.380,-12.160,-11.620,-0.061,0.816,-0.606,5.242,6.010,-15.728,0.000,0.000,0.000,0.000,0,2,0,3,7,255,1125,200,238,1125
stim,118448,118448,0,5435404.647,0.670,0.177,0.683,-0.233,55,67,77,27,37,7,56,36,0,0.000,0,0,16.318,8.052,3.880,-11.620,-10.780,-0.043,0.814,-0.601,5.242,6.112,-15.636,0.000,0.000,0.000,0.000,0,2,0,3,7,255,1125,200,243,1125
stim,118448,118448,0,5435409.647,0.669,0.177,0.684,-0.232,59,59,86,27,26,0,71,37,0,0.000,0,0,15.292,7.979,4.240,-11.000,-9.740,-0.056,0.810,-0.598,5.234,6.022,-15.676,0.000,0.000,0.000,0.000,0,2,0,3,7,255,1125,200,248,1125
stim,118463,118463,0,5435414.647,0.668,0.176,0.685,-0.232,55,48,86,55,21,7,71,4,0,0.000,0,0,14.247,7.972,4.900,-10.460,-8.340,-0.062,0.814,-0.590,5.194,6.048,-15.676,0.000,0.000,0.000,0.000,0,2,0,3,7,255,1125,200,253,1125
stim,118463,118463,0,5435419.647,0.667,0.175,0.687,-0.231,43,67,72,40,35,0,93,30,0,0.000,0,0,13.721,7.904,5.820,-10.400,-6.800,-0.065,0.810,-0.586,5.120,6.022,-15.678,0.000,0.000,0.000,0.000,0,2,0,3,7,255,1125,200,258,1125
stim,118463,118463,0,5435424.647,0.665,0.175,0.688,-0.231,72,30,83,59,19,7,41,36,0,0.000,0,0,13.544,7.877,6.380,-10.400,-5.880,-0.067,0.804,-0.584,5.094,6.008,-15.678,0.000,0.000,0.000,0.000,0,2,0,3,7,255,1125,200,263,1125
stim,118544,118544,0,5435469.647,0.656,0.171,0.700,-0.226,73,83,69,68,16,0,40,40,0,0.000,0,0,10.089,8.273,2.220,-8.380,-5.160,-0.051,0.810,-0.613,5.478,6.200,-15.412,0.000,0.000,0.000,0.000,0,2,0,3,7,255,1125,200,308,1125
stim,118544,118544,0,5435474.647,0.655,0.170,0.701,-0.226,51,56,85,40,40,0,67,13,0,0.000,0,0,9.810,8.273,2.160,-8.020,-5.220,-0.051,0.805,-0.606,5.478,6.200,-15.348,0.000,0.000,0.000,0.000,0,2,0,3,7,255,1125,200,313,1125
stim,118544,118544,0,5435479.647,0.654,0.170,0.702,-0.225,84,93,51,40,27,0,31,0,0,0.000,0,0,9.686,8.242,1.500,-7.940,-5.340,-0.052,0.803,-0.596,5.446,6.186,-15.280,0.000,0.000,0.000,0.000,0,2,0,3,7,255,1125,200,318,1125
stim,118544,118544,0,5435484.647,0.653,0.170,0.703,-0.224,87,89,51,59,27,0,28,33,0,0.000,0,0,9.355,8.217,0.700,-7.520,-5.520,-0.048,0.801,-0.599,5.408,6.186,-15.240,0.000,0.000,0.000,0.000,0,2,0,3,7,255,1125,200,323,1125
stim,118544,118544,0,5435489.647,0.652,0.169,0.705,-0.224,51,62,72,39,43,0,53,31,0,0.000,0,0,9.163,8.227,0.140,-7.220,-5.640,-0.043,0.799,-0.606,5.408,6.200,-15.174,0.000,0.000,0.000,0.000,0,2,0,3,7,255,1125,200,328,1125
stim,118559,118559,0,5435494.647,0.651,0.169,0.706,-0.223,57,71,77,39,41,0,63,16,0,0.000,0,0,8.987,8.291,-0.280,-6.720,-5.960,-0.044,0.801,-0.604,5.484,6.218,-15.104,0.000,0.000,0.000,0.000,0,2,0,3,7,255,1125,200,333,1125
stim,118559,118559,0,5435499.647,0.650,0.169,0.707,-0.222,88,93,0,73,33,3,37,29,0,0.000,0,0,8.517,8.304,-1.080,-6.180,-5.760,-0.049,0.805,-0.599,5.484,6.236,-15.104,0.000,0.000,0.000,0.000,0,2,0,3,7,255,1125,200,338,1125
stim,118559,118559,0,5435504.647,0.648,0.169,0.708,-0.222,82,90,45,55,31,0,42,8,0,0.000,0,0,8.154,8.316,-1.860,-5.820,-5.400,-0.051,0.805,-0.604,5.484,6.252,-15.112,0.000,0.000,0.000,0.000,0,2,0,3,7,255,1125,200,343,1125
stim,118559,118559,0,5435509.647,0.647,0.168,0.710,-0.221,71,77,57,67,24,7,40,41,0,0.000,0,0,7.742,8.324,-2.240,-5.320,-5.160,-0.058,0.804,-0.602,5.496,6.252,-15.118,0.000,0.000,0.000,0.000,0,2,0,3,7,255,1125,200,348,1125
stim,118559,118559,0,5435514.647,0.646,0.168,0.711,-0.220,55,72,76,30,43,5,76,18,0,0.000,0,0,6.981,8.299,-2.420,-4.660,-4.600,-0.067,0.807,-0.593,5.496,6.218,-15.140,0.000,0.000,0.000,0.000,0,2,0,3,7,255,1125,200,353,1125
stim,118559,118559,0,5435519.647,0.645,0.168,0.712,-0.219,58,69,79,59,21,0,59,37,0,0.000,0,0,6.205,8.268,-2.840,-3.980,-3.820,-0.072,0.805,-0.597,5.466,6.204,-15.190,0.000,0.000,0.000,0.000,0,2,0,3,7,255,1125,200,358,1125
stim,118559,118559,0,5435524.647,0.644,0.168,0.713,-0.219,77,85,55,63,39,6,39,23,0,0.000,0,0,5.106,8.243,-2.540,-3.240,-3.020,-0.071,0.803,-0.598,5.466,6.170,-15.190,0.000,0.000,0.000,0.000,0,2,0,3,7,255,1125,200,363,1125
stim,118559,118559,0,5435529.648,0.643,0.168,0.714,-0.218,75,68,79,56,40,0,61,30,0,0.000,0,0,3.841,8.255,-1.920,-2.580,-2.100,-0.064,0.800,-0.594,5.484,6.170,-15.156,0.000,0.000,0.000,0.000,0,2,0,3,7,255,1125,200,368,1125
stim,118575,118575,0,5435539.647,0.641,0.168,0.717,-0.217,85,89,26,59,37,3,31,27,0,0.000,0,0,3.492,8.313,-0.460,-2.880,-1.920,-0.045,0.794,-0.597,5.510,6.224,-14.924,0.000,0.000,0.000,0.000,0,2,0,3,7,255,1125,200,378,1125
stim,118575,118575,0,5435544.647,0.640,0.168,0.718,-0.216,41,67,75,30,23,0,59,35,0,0.000,0,0,3.883,8.364,-0.160,-2.880,-2.600,-0.037,0.792,-0.599,5.556,6.252,-14.826,0.000,0.000,0.000,0.000,0,2,0,3,7,255,1125,200,383,1125
stim,118575,118575,0,5435549.647,0.639,0.167,0.719,-0.216,77,85,46,55,17,0,28,37,0,0.000,0,0,4.603,8.417,-0.160,-3.120,-3.380,-0.035,0.794,-0.601,5.600,6.284,-14.724,0.000,0.000,0.000,0.000,0,2,0,3,7,255,1125,200,388,1125
stim,118575,118575,0,5435554.647,0.638,0.167,0.720,-0.215,71,81,46,59,33,3,28,23,0,0.000,0,0,5.720,8.465,-0.280,-3.620,-4.420,-0.035,0.796,-0.608,5.634,6.318,-14.694,0.000,0.000,0.000,0.000,0,2,0,3,7,255,1125,200,393,1125
stim,118575,118575,0,5435559.647,0.637,0.167,0.721,-0.214,75,78,47,55,30,8,37,15,0,0.000,0,0,7.088,8.523,-0.220,-4.040,-5.820,-0.037,0.793,-0.610,5.720,6.318,-14.680,0.000,0.000,0.000,0.000,0,2,0,3,7,255,1125,200,398,1125
stim,118575,118575,0,5435564.647,0.636,0.167,0.723,-0.213,73,82,46,54,41,8,35,17,0,0.000,0,0,8.428,8.520,-0.340,-4.400,-7.180,-0.048,0.797,-0.598,5.720,6.314,-14.680,0.000,0.000,0.000,0.000,0,2,0,3,7,255,1125,200,403,1125
stim,118656,118656,0,5435594.647,0.629,0.165,0.731,-0.208,59,69,85,41,43,7,62,37,0,0.000,0,0,14.083,8.516,-2.480,-9.300,-10.280,-0.074,0.800,-0.602,5.752,6.280,-14.776,0.000,0.000,0.000,0.000,0,2,0,3,7,255,1125,200,433,1125
stim,118671,118671,0,5435619.647,0.623,0.163,0.737,-0.203,85,87,53,41,27,8,53,11,0,0.000,0,0,15.949,8.388,0.020,-12.040,-10.460,-0.097,0.798,-0.582,5.648,6.202,-14.758,0.000,0.000,0.000,0.000,0,2,0,3,7,255,1125,200,458,1125
stim,118671,118671,0,5435629.647,0.620,0.162,0.740,-0.202,63,72,51,37,37,17,55,16,0,0.000,0,0,16.980,8.325,0.880,-13.440,-10.340,-0.106,0.795,-0.574,5.602,6.158,-14.782,0.000,0.000,0.000,0.000,0,2,0,3,7,255,1125,200,468,1125
stim,118671,118671,0,5435634.647,0.619,0.162,0.742,-0.201,58,68,85,59,27,0,69,43,0,0.000,0,0,16.462,8.325,1.800,-13.380,-9.420,-0.103,0.794,-0.575,5.602,6.158,-14.766,0.000,0.000,0.000,0.000,0,2,0,3,7,255,1125,200,473,1125
