condition_phase,condition_phase_elapsed_ms,condition_elapsed_ms,is_stimulation_on,t_ms,L_q0,L_q1,L_q2,L_q3,L_heel1,L_mid1,L_fore1,L_heel2,L_fore3,L_mid2,L_fore4,L_fore2,L_cadence,L_speed,L_steps,L_zupt,L_gyroNorm,L_accH,L_gyro_x,L_gyro_y,L_gyro_z,L_acc_x,L_acc_y,L_acc_z,L_nav_ax,L_nav_ay,L_nav_az,L_stepVel,L_stepVelj,L_stepDispRaw,L_stepDispZUPT,L_gaitEvent,L_motorMode,L_motorActive,L_motorAlignment,L_motorRegionMask,L_motorAmplitude,L_motorIntervalMs,L_motorDurationMs,L_motorPhaseMs,L_motorCycleMs
stim,40,40,0,769928.829,0.988,0.055,-0.066,-0.130,2343,0,168,2461,383,895,33,609,1,0.000,3,0,0.115,0.029,0.100,-0.040,-0.040,-0.148,-0.091,0.988,0.008,-0.028,0.002,0.000,0.000,0.000,0.000,1,2,0,1,7,255,1020,200,0,0
stim,40,40,0,769933.829,0.988,0.055,-0.066,-0.130,2329,0,168,2461,455,905,29,603,1,0.000,3,0,0.115,0.038,0.040,-0.040,-0.100,-0.151,-0.091,0.987,0.004,-0.038,0.002,0.000,0.000,0.000,0.000,1,2,0,1,7,255,1020,200,0,0
stim,40,40,0,769938.829,0.988,0.055,-0.066,-0.130,2329,0,170,2462,587,905,27,601,1,0.000,3,0,0.363,0.046,-0.080,-0.100,-0.340,-0.151,-0.094,0.988,-0.012,-0.044,0.008,0.000,0.000,0.000,0.000,1,2,0,1,7,255,1020,200,0,0
stim,40,40,0,769943.830,0.988,0.055,-0.066,-0.130,2332,0,165,2457,527,896,29,600,1,0.000,3,0,0.534,0.046,-0.220,-0.160,-0.460,-0.147,-0.088,0.988,-0.012,-0.044,0.002,0.000,0.000,0.000,0.000,1,2,0,1,7,255,1020,200,0,0
stim,66,66,0,769948.829,0.988,0.054,-0.066,-0.130,2334,0,171,2452,776,907,34,599,1,0.000,3,0,0.170,0.010,0.040,-0.040,-0.160,-0.140,-0.080,0.985,0.010,0.000,-0.002,0.000,0.000,0.000,0.000,1,2,0,1,7,255,1020,200,0,0
stim,66,66,0,769953.829,0.988,0.054,-0.066,-0.130,2325,0,166,2473,743,909,27,604,1,0.000,3,0,0.813,0.102,0.460,0.200,0.640,-0.138,-0.078,0.984,0.054,0.086,-0.042,0.000,0.000,0.000,0.000,1,2,0,1,7,255,1020,200,0,0
stim,66,66,0,769958.829,0.988,0.054,-0.066,-0.130,2333,0,169,2461,768,906,29,605,1,0.000,3,0,0.892,0.102,0.340,0.320,0.760,-0.149,-0.092,0.990,0.054,0.086,-0.042,0.000,0.000,0.000,0.000,1,2,0,1,7,255,1020,200,0,0
stim,66,66,0,769963.829,0.988,0.055,-0.066,-0.130,2325,0,165,2457,775,896,27,610,1,0.000,3,0,0.664,0.048,-0.400,-0.100,-0.520,-0.157,-0.101,0.993,0.002,-0.048,0.024,0.000,0.000,0.000,0.000,1,2,0,1,7,255,1020,200,0,0
stim,66,66,0,769968.829,0.988,0.055,-0.066,-0.130,2335,0,170,2457,352,907,36,597,1,0.000,3,0,1.087,0.048,-0.340,-0.600,-0.840,-0.144,-0.087,0.987,0.002,-0.048,0.024,0.000,0.000,0.000,0.000,1,2,0,1,7,255,1020,200,0,0
stim,66,66,0,769973.829,0.988,0.054,-0.066,-0.130,2345,0,169,2462,201,910,36,606,1,0.000,3,0,1.073,0.035,0.580,0.200,0.880,-0.139,-0.078,0.982,0.032,0.014,-0.012,0.000,0.000,0.000,0.000,1,2,0,1,7,255,1020,200,0,0
stim,66,66,0,769978.829,0.988,0.055,-0.066,-0.130,2340,0,171,2462,248,907,33,607,1,0.000,3,0,0.779,0.035,-0.020,0.680,0.380,-0.161,-0.105,0.995,0.032,0.014,-0.012,0.000,0.000,0.000,0.000,1,2,0,1,7,255,1020,200,0,0
stim,66,66,0,769983.829,0.988,0.055,-0.066,-0.130,2343,0,171,2461,273,904,29,607,1,0.000,3,0,2.435,0.036,-0.700,-1.200,-2.000,-0.146,-0.091,0.994,0.028,-0.022,0.056,0.000,0.000,0.000,0.000,1,2,0,1,7,255,1020,200,0,0
stim,66,66,0,769988.829,0.988,0.054,-0.066,-0.130,2331,0,170,2456,333,913,33,603,1,0.000,3,0,1.457,0.036,0.760,0.080,1.240,-0.121,-0.058,0.972,0.028,-0.022,0.056,0.000,0.000,0.000,0.000,1,2,0,1,7,255,1020,200,0,0
stim,66,66,0,769993.829,0.988,0.055,-0.066,-0.130,2334,0,168,2455,316,905,27,604,1,0.000,3,0,2.501,0.036,-0.080,1.600,1.920,-0.167,-0.110,0.994,0.028,-0.022,0.056,0.000,0.000,0.000,0.000,1,2,0,1,7,255,1020,200,0,0
stim,78,78,0,769998.829,0.988,0.055,-0.066,-0.130,2341,0,169,2459,224,907,37,605,1,0.000,3,0,3.783,0.139,-0.640,-1.880,-3.220,-0.155,-0.103,1.005,-0.012,-0.138,0.110,0.000,0.000,0.000,0.000,1,2,0,1,7,255,1020,200,0,1020
stim,78,78,0,770003.829,0.988,0.054,-0.066,-0.130,2335,0,167,2463,474,904,30,603,1,0.000,3,0,1.614,0.139,1.020,-0.160,1.240,-0.115,-0.059,0.967,-0.012,-0.138,0.110,0.000,0.000,0.000,0.000,1,2,0,1,7,255,1020,200,0,1020
stim,14,14,0,770008.829,0.988,0.055,-0.066,-0.130,2349,0,169,2458,223,904,36,602,1,0.000,3,0,2.944,0.139,-0.580,2.100,1.980,-0.169,-0.103,0.987,-0.012,-0.138,0.040,0.000,0.000,0.000,0.000,1,2,0,3,7,255,1224,250,1,1224
stim,14,14,0,770013.829,0.988,0.055,-0.066,-0.130,2333,0,171,2453,634,907,31,587,1,0.000,3,0,3.971,0.107,0.460,-2.360,-3.160,-0.146,-0.099,1.011,0.076,-0.076,0.040,0.000,0.000,0.000,0.000,1,2,0,3,7,255,1224,250,6,1224
stim,30,30,0,770018.829,0.988,0.055,-0.066,-0.130,2327,0,173,2459,311,907,30,607,1,0.000,3,0,2.484,0.107,-0.340,0.760,2.340,-0.131,-0.069,0.963,0.076,-0.076,0.040,0.000,0.000,0.000,0.000,1,2,0,3,7,255,1224,250,11,1224
stim,30,30,0,770023.829,0.988,0.055,-0.066,-0.130,2334,0,172,2460,471,913,31,604,1,0.000,3,0,1.220,0.107,0.640,1.000,-0.280,-0.163,-0.103,0.997,0.076,-0.076,0.124,0.000,0.000,0.000,0.000,1,2,0,3,7,255,1224,250,16,1224
stim,30,30,0,770028.829,0.988,0.055,-0.066,-0.130,2348,0,173,2457,454,913,33,601,1,0.000,3,0,2.386,0.087,-0.700,-1.940,-1.200,-0.137,-0.087,0.998,0.076,0.042,0.084,0.000,0.000,0.000,0.000,1,2,0,3,7,255,1224,250,21,1224
stim,30,30,0,770033.829,0.988,0.055,-0.066,-0.130,2341,0,170,2465,493,907,28,607,1,0.000,3,0,2.819,0.070,1.080,1.540,2.100,-0.150,-0.081,0.965,-0.062,0.032,0.084,0.000,0.000,0.000,0.000,1,2,0,3,7,255,1224,250,26,1224
stim,62,62,0,770038.829,0.988,0.055,-0.066,-0.130,2335,0,168,2457,519,903,28,605,1,0.000,3,0,2.633,0.070,-1.060,-0.720,-2.300,-0.147,-0.099,1.013,0.062,0.032,0.084,0.000,0.000,0.000,0.000,1,2,0,3,7,255,1224,250,31,1224
stim,62,62,0,770043.830,0.988,0.054,-0.066,-0.130,2336,0,167,2460,327,905,39,603,1,0.000,3,0,2.680,0.037,1.380,-0.280,2.280,-0.145,-0.078,0.967,-0.018,0.032,-0.216,0.000,0.000,0.000,0.000,1,2,0,3,7,255,1224,250,36,1224
stim,62,62,0,770048.829,0.988,0.055,-0.066,-0.130,2331,0,169,2459,439,911,29,607,1,0.000,3,0,2.488,0.065,-1.360,0.760,-1.940,-0.150,-0.095,1.000,0.010,-0.064,0.128,0.000,0.000,0.000,0.000,1,2,0,3,7,255,1224,250,41,1224
stim,62,62,0,770053.829,0.988,0.054,-0.066,-0.130,2327,0,168,2477,337,908,27,607,1,0.000,3,0,2.433,0.011,1.620,-0.960,1.540,-0.143,-0.087,0.982,0.010,0.004,-0.064,0.000,0.000,0.000,0.000,1,2,0,3,7,255,1224,250,46,1224
stim,62,62,0,770058.829,0.988,0.055,-0.066,-0.130,2343,0,168,2459,439,908,37,603,1,0.000,3,0,1.938,0.011,-1.440,0.620,-1.140,-0.151,-0.083,0.990,0.010,0.004,0.024,0.000,0.000,0.000,0.000,1,2,0,3,7,255,1224,250,51,1224
stim,62,62,0,770063.829,0.988,0.055,-0.066,-0.130,2341,0,171,2472,371,903,27,604,1,0.000,3,0,1.513,0.038,1.380,-0.340,0.520,-0.143,-0.104,0.987,0.038,0.004,-0.002,0.000,0.000,0.000,0.000,1,2,0,3,7,255,1224,250,56,1224
stim,78,78,0,770068.829,0.988,0.054,-0.066,-0.130,2345,0,167,2464,472,904,29,603,1,0.000,3,0,0.941,0.057,-0.940,-0.040,0.020,-0.149,-0.066,0.989,-0.038,0.042,-0.002,0.000,0.000,0.000,0.000,1,2,0,3,7,255,1224,250,61,1224
stim,78,78,0,770073.829,0.988,0.055,-0.066,-0.130,2283,0,171,2467,392,895,31,608,1,0.000,3,0,0.687,0.166,0.580,0.140,-0.340,-0.144,-0.115,0.988,0.090,-0.140,-0.002,0.000,0.000,0.000,0.000,1,2,0,3,7,255,1224,250,66,1224
stim,78,78,0,770078.829,0.988,0.054,-0.066,-0.130,2332,0,169,2455,415,909,29,603,1,0.000,3,0,0.673,0.204,-0.020,-0.340,0.580,-0.148,-0.064,0.988,-0.062,0.194,-0.008,0.000,0.000,0.000,0.000,1,2,0,3,7,255,1224,250,71,1224
stim,78,78,0,770083.829,0.988,0.055,-0.066,-0.130,2333,0,168,2456,519,906,27,611,1,0.000,3,0,0.636,0.184,-0.020,0.260,-0.580,-0.142,-0.105,0.988,0.100,-0.154,0.008,0.000,0.000,0.000,0.000,1,2,0,3,7,255,1224,250,76,1224
stim,95,95,0,770088.829,0.988,0.055,-0.066,-0.130,2329,0,169,2461,441,910,26,608,1,0.000,3,0,0.712,0.055,0.220,-0.220,0.640,-0.150,-0.083,0.989,-0.036,0.042,0.008,0.000,0.000,0.000,0.000,1,2,0,3,7,255,1224,250,81,1224
stim,95,95,0,770093.829,0.988,0.054,-0.066,-0.130,2333,0,173,2456,486,903,37,605,1,0.000,3,0,0.590,0.055,0.040,-0.100,-0.580,-0.143,-0.083,0.987,0.036,0.042,0.008,0.000,0.000,0.000,0.000,1,2,0,3,7,255,1224,250,86,1224
stim,110,110,0,770098.829,0.988,0.055,-0.066,-0.130,2332,0,173,2462,427,903,31,607,1,0.000,3,0,0.379,0.055,0.040,0.200,0.320,-0.145,-0.104,0.988,0.036,0.042,0.008,0.000,0.000,0.000,0.000,1,2,0,3,7,255,1224,250,91,1224
stim,110,110,0,770103.830,0.988,0.054,-0.066,-0.130,2332,1,172,2459,439,908,33,611,1,0.000,3,0,0.345,0.063,-0.020,-0.280,0.200,-0.151,-0.070,0.988,0.036,0.052,-0.006,0.000,0.000,0.000,0.000,1,2,0,3,7,255,1224,250,96,1224
stim,110,110,0,770108.829,0.988,0.054,-0.066,-0.130,2329,0,173,2457,377,907,33,609,1,0.000,3,0,0.636,0.118,0.220,0.140,-0.580,-0.140,-0.100,0.989,0.066,-0.098,0.014,0.000,0.000,0.000,0.000,1,2,0,3,7,255,1224,250,101,1224
stim,110,110,0,770113.829,0.988,0.054,-0.066,-0.130,2333,0,173,2473,377,901,31,609,1,0.000,3,0,0.544,0.046,-0.200,0.080,0.500,-0.148,-0.092,0.988,0.004,-0.046,0.004,0.000,0.000,0.000,0.000,1,2,0,3,7,255,1224,250,106,1224
stim,127,127,0,770118.829,0.988,0.054,-0.066,-0.130,2341,0,171,2471,404,904,31,609,1,0.000,3,0,0.273,0.046,0.220,-0.160,0.020,-0.152,-0.072,0.987,0.004,-0.046,0.004,0.000,0.000,0.000,0.000,1,2,0,3,7,255,1224,250,111,1224
stim,127,127,0,770123.829,0.988,0.054,-0.066,-0.130,2329,0,175,2460,371,911,31,613,1,0.000,3,0,0.325,0.046,0.280,-0.040,-0.160,-0.141,-0.100,0.991,0.004,-0.046,0.004,0.000,0.000,0.000,0.000,1,2,0,3,7,255,1224,250,116,1224
stim,158,158,0,770128.829,0.988,0.054,-0.066,-0.130,2326,0,171,2472,364,907,31,609,1,0.000,3,0,0.547,0.080,-0.460,0.140,0.260,-0.147,-0.096,0.987,0.026,-0.076,-0.004,0.000,0.000,0.000,0.000,1,2,0,3,7,255,1224,250,121,1224
stim,158,158,0,770133.829,0.988,0.054,-0.066,-0.130,2327,0,168,2455,375,906,29,607,1,0.000,3,0,0.325,0.080,0.160,-0.040,-0.280,-0.151,-0.072,0.983,0.026,-0.076,-0.004,0.000,0.000,0.000,0.000,1,2,0,3,7,255,1224,250,126,1224
stim,158,158,0,770138.829,0.988,0.054,-0.066,-0.130,2337,0,170,2461,376,906,35,604,1,0.000,3,0,0.708,0.038,0.700,-0.040,-0.100,-0.142,-0.092,0.992,0.026,-0.028,-0.004,0.000,0.000,0.000,0.000,1,2,0,3,7,255,1224,250,131,1224
stim,158,158,0,770143.830,0.988,0.054,-0.066,-0.130,2341,0,172,2459,365,903,29,609,1,0.000,3,0,0.825,0.070,-0.520,0.020,0.640,-0.146,-0.104,0.993,0.064,-0.028,0.038,0.000,0.000,0.000,0.000,1,2,0,3,7,255,1224,250,136,1224
stim,158,158,0,770148.829,0.988,0.054,-0.067,-0.130,2348,0,169,2469,372,905,35,606,1,0.000,3,0,0.602,0.070,-0.580,0.020,-0.160,-0.154,-0.079,0.982,0.064,-0.028,0.038,0.000,0.000,0.000,0.000,1,2,0,3,7,255,1224,250,141,1224
stim,158,158,0,770153.829,0.988,0.054,-0.067,-0.130,2331,0,173,2459,373,908,29,609,1,0.000,3,0,1.321,0.061,0.760,-0.040,-1.080,-0.144,-0.080,0.985,0.020,0.058,-0.040,0.000,0.000,0.000,0.000,1,2,0,3,7,255,1224,250,146,1224
stim,191,191,0,770158.829,0.988,0.054,-0.066,-0.130,2345,0,169,2468,375,906,33,605,1,0.000,3,0,0.562,0.061,0.460,-0.040,0.320,-0.139,-0.103,0.996,0.020,0.058,-0.040,0.000,0.000,0.000,0.000,1,2,0,3,7,255,1224,250,151,1224
stim,191,191,0,770163.829,0.988,0.054,-0.066,-0.130,2333,0,169,2457,365,903,35,603,1,0.000,3,0,1.640,0.077,-0.820,-0.040,1.420,-0.150,-0.095,0.990,0.020,-0.074,0.028,0.000,0.000,0.000,0.000,1,2,0,3,7,255,1224,250,156,1224
stim,191,191,0,770168.829,0.988,0.054,-0.067,-0.130,2331,0,170,2468,356,896,29,609,1,0.000,3,0,0.441,0.074,-0.340,0.020,-0.280,-0.159,-0.073,0.981,-0.004,-0.074,0.028,0.000,0.000,0.000,0.000,1,2,0,3,7,255,1224,250,161,1224
stim,191,191,0,770173.829,0.988,0.054,-0.067,-0.130,2339,0,172,2459,360,909,35,614,1,0.000,3,0,1.870,0.018,0.820,0.020,-1.680,-0.145,-0.086,0.988,-0.004,0.018,-0.006,0.000,0.000,0.000,0.000,1,2,0,3,7,255,1224,250,166,1224
stim,191,191,0,770178.829,0.988,0.054,-0.066,-0.130,2347,0,169,2464,372,906,35,605,1,0.000,3,0,0.300,0.035,0.280,-0.040,-0.100,-0.132,-0.106,0.994,0.030,0.018,-0.006,0.000,0.000,0.000,0.000,1,2,0,3,7,255,1224,250,171,1224
stim,191,191,0,770183.829,0.988,0.054,-0.066,-0.130,2340,1,174,2452,369,909,33,611,1,0.000,3,0,1.913,0.053,-0.640,-0.100,1.800,-0.147,-0.092,0.987,0.030,-0.044,-0.002,0.000,0.000,0.000,0.000,1,2,0,3,7,255,1224,250,176,1224
stim,191,191,0,770188.829,0.988,0.054,-0.067,-0.130,2333,0,173,2456,361,904,33,602,1,0.000,3,0,0.705,0.048,-0.080,0.020,0.700,-0.160,-0.075,0.985,0.018,-0.044,-0.002,0.000,0.000,0.000,0.000,1,2,0,3,7,255,1224,250,181,1224
stim,191,191,0,770193.829,0.988,0.054,-0.067,-0.130,2323,0,169,2449,357,895,27,601,1,0.000,3,0,1.632,0.048,0.460,0.140,-1.560,-0.153,-0.085,0.989,-0.048,0.004,-0.002,0.000,0.000,0.000,0.000,1,2,0,3,7,255,1224,250,186,1224
stim,191,191,0,770198.829,0.988,0.054,-0.067,-0.130,2344,0,173,2459,351,909,33,609,1,0.000,3,0,1.264,0.048,0.100,0.020,-1.260,-0.134,-0.099,0.989,-0.048,0.004,0.000,0.000,0.000,0.000,0.000,1,2,0,3,7,255,1224,250,191,1224
stim,207,207,0,770203.829,0.988,0.054,-0.067,-0.130,2339,0,169,2461,356,905,29,608,1,0.000,3,0,1.086,0.135,-0.080,-0.220,1.060,-0.136,-0.095,0.985,0.128,-0.044,0.000,0.000,0.000,0.000,0.000,1,2,0,3,7,255,1224,250,196,1224
stim,207,207,0,770208.829,0.988,0.054,-0.067,-0.130,2341,0,173,2459,365,912,35,600,1,0.000,3,0,1.750,0.135,0.100,-0.160,1.740,-0.153,-0.083,0.988,0.128,-0.044,0.000,0.000,0.000,0.000,0.000,1,2,0,3,7,255,1224,250,201,1224
stim,223,223,0,770213.829,0.988,0.054,-0.067,-0.130,2333,0,173,2453,373,907,31,611,1,0.000,3,0,0.281,0.068,-0.020,0.020,-0.280,-0.159,-0.081,0.989,-0.064,0.022,0.004,0.000,0.000,0.000,0.000,1,2,0,3,7,255,1224,250,206,1224
stim,223,223,0,770218.829,0.988,0.054,-0.067,-0.130,2333,0,172,2464,381,915,28,612,1,0.000,3,0,1.886,0.068,0.040,0.140,-1.880,-0.147,-0.087,0.986,-0.064,0.022,0.004,0.000,0.000,0.000,0.000,1,2,0,3,7,255,1224,250,211,1224
stim,223,223,0,770223.829,0.988,0.054,-0.067,-0.130,2333,0,172,2465,365,904,31,613,1,0.000,3,0,0.886,0.006,0.280,0.020,-0.840,-0.133,-0.093,0.985,0.006,0.002,-0.020,0.000,0.000,0.000,0.000,1,2,0,3,7,255,1224,250,216,1224
stim,223,223,0,770228.829,0.988,0.054,-0.067,-0.130,2341,0,171,2457,364,909,33,610,1,0.000,3,0,1.254,0.093,0.100,-0.160,1.240,-0.140,-0.094,0.989,0.090,-0.024,-0.020,0.000,0.000,0.000,0.000,1,2,0,3,7,255,1224,250,221,1224
stim,271,271,0,770233.829,0.988,0.054,-0.067,-0.130,2341,0,172,2459,364,911,29,606,1,0.000,3,0,1.469,0.093,-0.340,-0.160,1.420,-0.154,-0.086,0.989,0.090,-0.024,0.010,0.000,0.000,0.000,0.000,1,2,0,3,7,255,1224,250,226,1224
stim,271,271,0,770238.829,0.988,0.054,-0.067,-0.130,2331,0,173,2461,373,907,31,605,1,0.000,3,0,0.323,0.058,-0.140,0.080,-0.280,-0.156,-0.084,0.984,-0.058,-0.006,0.010,0.000,0.000,0.000,0.000,1,2,0,3,7,255,1224,250,231,1224
stim,271,271,0,770243.830,0.988,0.054,-0.067,-0.130,2344,0,172,2469,374,905,27,607,1,0.000,3,0,1.444,0.058,0.400,0.140,-1.380,-0.146,-0.089,0.984,-0.058,-0.006,-0.028,0.000,0.000,0.000,0.000,1,2,0,3,7,255,1224,250,236,1224
stim,271,271,0,770248.829,0.988,0.054,-0.067,-0.130,2335,0,167,2467,365,904,33,609,1,0.000,3,0,0.779,0.028,0.580,0.020,-0.520,-0.137,-0.092,0.989,0.024,-0.014,-0.028,0.000,0.000,0.000,0.000,1,2,0,3,7,255,1224,250,241,1224
stim,271,271,0,770253.829,0.988,0.054,-0.067,-0.130,2334,2,169,2469,373,907,33,607,1,0.000,3,0,0.882,0.060,0.040,-0.040,0.880,-0.142,-0.087,0.992,0.058,-0.014,0.004,0.000,0.000,0.000,0.000,1,2,0,3,7,255,1224,250,246,1224
stim,271,271,0,770258.829,0.988,0.054,-0.067,-0.130,2327,0,173,2463,368,915,37,604,1,0.000,3,0,1.047,0.061,-0.460,0.020,0.940,-0.151,-0.084,0.990,0.058,0.018,0.022,0.000,0.000,0.000,0.000,1,2,0,3,7,255,1224,250,251,1224
stim,286,286,0,770263.829,0.988,0.054,-0.067,-0.130,2343,0,173,2469,359,909,33,611,1,0.000,3,0,0.343,0.044,-0.340,0.020,-0.040,-0.152,-0.088,0.983,-0.040,0.018,0.022,0.000,0.000,0.000,0.000,1,2,0,3,7,255,1224,250,256,1224
stim,286,286,0,770268.829,0.988,0.054,-0.067,-0.130,2336,0,175,2469,359,915,31,609,1,0.000,3,0,0.621,0.046,0.220,0.020,-0.580,-0.146,-0.091,0.984,-0.040,-0.022,-0.030,0.000,0.000,0.000,0.000,1,2,0,3,7,255,1224,250,261,1224
stim,286,286,0,770273.829,0.988,0.054,-0.067,-0.130,2336,0,171,2463,349,909,27,609,1,0.000,3,0,0.621,0.028,0.580,0.020,-0.220,-0.143,-0.091,0.989,0.018,-0.022,-0.030,0.000,0.000,0.000,0.000,1,2,0,3,7,255,1224,250,266,1224
stim,286,286,0,770278.829,0.988,0.054,-0.067,-0.130,2333,0,177,2460,350,908,33,604,1,0.000,3,0,0.383,0.028,0.280,0.020,0.260,-0.146,-0.086,0.990,0.018,-0.022,0.006,0.000,0.000,0.000,0.000,1,2,0,3,7,255,1224,250,271,1224
stim,302,302,0,770283.829,0.988,0.054,-0.067,-0.130,2332,0,170,2467,355,907,30,612,1,0.000,3,0,0.407,0.018,-0.140,-0.040,0.380,-0.148,-0.086,0.989,0.016,0.008,0.014,0.000,0.000,0.000,0.000,1,2,0,3,7,255,1224,250,276,1224
stim,302,302,0,770288.829,0.988,0.054,-0.067,-0.130,2329,0,173,2459,438,915,28,613,1,0.000,3,0,0.264,0.016,-0.220,-0.040,0.140,-0.146,-0.089,0.986,0.014,0.008,0.014,0.000,0.000,0.000,0.000,1,2,0,3,7,255,1224,250,281,1224
stim,302,302,0,770293.829,0.988,0.054,-0.067,-0.130,2340,0,177,2468,444,904,33,602,1,0.000,3,0,0.166,0.022,0.160,0.020,-0.040,-0.147,-0.090,0.984,0.010,-0.020,-0.018,0.000,0.000,0.000,0.000,1,2,0,3,7,255,1224,250,286,1224
stim,302,302,0,770298.829,0.988,0.054,-0.067,-0.130,2347,0,167,2459,360,905,35,606,1,0.000,3,0,0.462,0.024,0.460,-0.040,0.020,-0.146,-0.089,0.988,0.014,-0.020,-0.018,0.000,0.000,0.000,0.000,1,2,0,3,7,255,1224,250,291,1224
stim,324,324,0,770303.829,0.988,0.054,-0.067,-0.130,2328,1,173,2457,348,909,35,607,1,0.000,3,0,0.308,0.026,0.280,-0.100,0.080,-0.146,-0.088,0.992,0.022,-0.014,0.004,0.000,0.000,0.000,0.000,1,2,0,3,7,255,1224,250,296,1224
stim,324,324,0,770308.829,0.988,0.054,-0.067,-0.130,2335,0,173,2457,361,903,33,611,1,0.000,3,0,0.166,0.022,-0.080,-0.040,0.140,-0.146,-0.086,0.990,0.022,0.004,0.016,0.000,0.000,0.000,0.000,1,2,0,3,7,255,1224,250,301,1224
stim,324,324,0,770313.829,0.988,0.054,-0.067,-0.130,2336,0,168,2461,471,905,30,608,1,0.000,3,0,0.219,0.015,-0.200,-0.040,0.080,-0.146,-0.089,0.987,0.014,0.004,0.016,0.000,0.000,0.000,0.000,1,2,0,3,7,255,1224,250,306,1224
stim,324,324,0,770318.829,0.988,0.054,-0.067,-0.130,2345,0,173,2457,460,903,33,605,1,0.000,3,0,0.147,0.016,0.040,0.020,0.140,-0.147,-0.091,0.985,0.010,-0.012,-0.006,0.000,0.000,0.000,0.000,1,2,0,3,7,255,1224,250,311,1224
stim,335,335,0,770323.829,0.988,0.054,-0.067,-0.130,2334,0,167,2467,455,902,36,607,1,0.000,3,0,0.227,0.014,0.220,-0.040,-0.040,-0.147,-0.088,0.987,0.008,-0.012,-0.006,0.000,0.000,0.000,0.000,1,2,0,3,7,255,1224,250,316,1224
stim,335,335,0,770328.829,0.988,0.054,-0.067,-0.130,2333,0,173,2457,453,906,29,603,1,0.000,3,0,0.325,0.013,0.280,-0.040,-0.160,-0.147,-0.087,0.989,0.008,-0.010,-0.004,0.000,0.000,0.000,0.000,1,2,0,3,7,255,1224,250,321,1224
stim,335,335,0,770333.829,0.988,0.054,-0.067,-0.130,2342,0,168,2477,455,903,28,608,1,0.000,3,0,0.110,0.008,-0.020,-0.040,-0.100,-0.146,-0.087,0.990,0.008,0.002,0.008,0.000,0.000,0.000,0.000,1,2,0,3,7,255,1224,250,326,1224
stim,366,366,0,770338.829,0.988,0.054,-0.067,-0.130,2341,0,168,2457,453,905,36,604,1,0.000,3,0,0.147,0.022,-0.140,-0.040,0.020,-0.146,-0.088,0.988,0.022,0.002,0.008,0.000,0.000,0.000,0.000,1,2,0,3,7,255,1224,250,331,1224
stim,366,366,0,770343.830,0.988,0.054,-0.067,-0.130,2332,0,173,2463,451,902,27,609,1,0.000,3,0,0.085,0.022,-0.020,0.020,0.080,-0.146,-0.089,0.986,0.022,-0.004,0.002,0.000,0.000,0.000,0.000,1,2,0,3,7,255,1224,250,336,1224
stim,366,366,0,770348.829,0.988,0.054,-0.067,-0.130,2331,0,171,2455,461,908,27,615,1,0.000,3,0,0.115,0.016,0.100,-0.040,-0.040,-0.147,-0.088,0.987,0.014,-0.008,-0.004,0.000,0.000,0.000,0.000,1,2,0,3,7,255,1224,250,341,1224
stim,366,366,0,770353.829,0.988,0.054,-0.067,-0.130,2333,1,171,2461,457,909,31,613,1,0.000,3,0,0.193,0.014,0.160,-0.040,-0.100,-0.146,-0.088,0.988,0.012,-0.008,-0.004,0.000,0.000,0.000,0.000,1,2,0,3,7,255,1224,250,346,1224
stim,366,366,0,770358.829,0.988,0.054,-0.067,-0.130,2339,0,169,2471,458,909,28,605,1,0.000,3,0,0.115,0.013,0.040,-0.040,-0.100,-0.146,-0.088,0.989,0.012,-0.006,0.000,0.000,0.000,0.000,0.000,1,2,0,3,7,255,1224,250,351,1224
stim,366,366,0,770363.829,0.988,0.054,-0.067,-0.130,2328,0,176,2469,443,915,25,615,1,0.000,3,0,0.085,0.019,-0.020,0.020,0.080,-0.146,-0.089,0.987,0.018,-0.006,0.000,0.000,0.000,0.000,0.000,1,2,0,3,7,255,1224,250,356,1224
stim,389,389,0,770368.829,0.988,0.054,-0.067,-0.130,2341,0,174,2464,438,913,29,612,1,0.000,3,0,0.115,0.021,-0.080,0.020,0.080,-0.147,-0.090,0.987,0.018,-0.010,-0.006,0.000,0.000,0.000,0.000,1,2,0,3,7,255,1224,250,361,1224
stim,389,389,0,770373.829,0.988,0.054,-0.067,-0.130,2342,0,182,2455,444,901,8,611,1,0.000,3,0,0.069,0.014,0.040,-0.040,-0.040,-0.147,-0.089,0.989,0.010,-0.010,-0.006,0.000,0.000,0.000,0.000,1,2,0,3,7,255,1224,250,366,1224
stim,389,389,0,770378.829,0.988,0.054,-0.067,-0.130,2339,0,171,2473,456,915,29,608,1,0.000,3,0,0.227,0.014,0.160,0.020,-0.160,-0.146,-0.089,0.987,0.010,-0.010,-0.006,0.000,0.000,0.000,0.000,1,2,0,3,7,255,1224,250,371,1224
stim,389,389,0,770383.829,0.988,0.054,-0.067,-0.130,2329,0,172,2460,451,909,29,613,1,0.000,3,0,0.147,0.018,0.100,-0.040,-0.100,-0.146,-0.088,0.989,0.016,-0.008,0.010,0.000,0.000,0.000,0.000,1,2,0,3,7,255,1224,250,376,1224
stim,389,389,0,770388.829,0.988,0.054,-0.067,-0.130,2341,0,175,2455,453,896,29,613,1,0.000,3,0,0.110,0.016,0.100,-0.040,0.020,-0.146,-0.088,0.988,0.016,-0.004,-0.002,0.000,0.000,0.000,0.000,1,2,0,3,7,255,1224,250,381,1224
stim,389,389,0,770393.829,0.988,0.054,-0.067,-0.130,2335,0,169,2473,455,905,28,613,1,0.000,3,0,0.035,0.022,-0.020,0.020,0.020,-0.146,-0.089,0.988,0.022,-0.004,0.004,0.000,0.000,0.000,0.000,1,2,0,3,7,255,1224,250,386,1224
stim,420,420,0,770398.829,0.988,0.054,-0.067,-0.130,2331,0,172,2464,435,907,31,609,1,0.000,3,0,0.049,0.016,-0.020,0.020,-0.040,-0.147,-0.087,0.988,0.016,-0.004,0.004,0.000,0.000,0.000,0.000,1,2,0,3,7,255,1224,250,391,1224
stim,420,420,0,770403.829,0.988,0.054,-0.067,-0.130,2345,0,170,2469,432,908,28,606,1,0.000,3,0,0.110,0.016,0.040,0.020,-0.100,-0.146,-0.088,0.988,0.016,-0.002,0.004,0.000,0.000,0.000,0.000,1,2,0,3,7,255,1224,250,396,1224
stim,420,420,0,770408.829,0.988,0.054,-0.067,-0.130,2348,0,169,2461,429,905,29,607,1,0.000,3,0,0.110,0.016,0.040,0.020,-0.100,-0.146,-0.089,0.989,0.016,-0.002,0.004,0.000,0.000,0.000,0.000,1,2,0,3,7,255,1224,250,401,1224
stim,420,420,0,770413.829,0.988,0.054,-0.067,-0.130,2335,0,173,2457,429,907,25,605,1,0.000,3,0,0.049,0.021,-0.020,0.020,-0.040,-0.146,-0.090,0.987,0.018,-0.010,0.004,0.000,0.000,0.000,0.000,1,2,0,3,7,255,1224,250,406,1224
stim,421,421,0,770418.829,0.988,0.054,-0.067,-0.130,2342,0,173,2459,420,909,33,613,1,0.000,3,0,0.035,0.021,-0.020,0.020,0.020,-0.146,-0.088,0.988,0.018,-0.010,0.000,0.000,0.000,0.000,0.000,1,2,0,3,7,255,1224,250,411,1224
stim,421,421,0,770423.829,0.988,0.054,-0.067,-0.130,2336,1,174,2479,413,908,28,613,1,0.000,3,0,0.049,0.011,-0.020,-0.040,0.020,-0.146,-0.088,0.987,0.010,-0.004,-0.004,0.000,0.000,0.000,0.000,1,2,0,3,7,255,1224,250,416,1224
stim,463,463,0,770428.829,0.988,0.054,-0.067,-0.130,2331,0,172,2473,425,903,25,613,1,0.000,3,0,0.049,0.011,-0.020,0.020,-0.040,-0.146,-0.089,0.988,0.010,-0.004,0.000,0.000,0.000,0.000,0.000,1,2,0,3,7,255,1224,250,421,1224
stim,463,463,0,770433.829,0.988,0.054,-0.067,-0.130,2353,0,173,2461,429,909,30,605,1,0.000,3,0,0.069,0.011,0.040,-0.040,-0.040,-0.146,-0.088,0.988,0.010,-0.004,0.004,0.000,0.000,0.000,0.000,1,2,0,3,7,255,1224,250,426,1224
stim,463,463,0,770438.829,0.988,0.054,-0.067,-0.130,2339,0,174,2475,421,913,27,603,1,0.000,3,0,0.060,0.017,0.040,0.020,-0.040,-0.146,-0.090,0.987,0.012,-0.012,0.004,0.000,0.000,0.000,0.000,1,2,0,3,7,255,1224,250,431,1224
stim,463,463,0,770443.829,0.988,0.054,-0.067,-0.130,2343,1,173,2455,431,903,27,615,1,0.000,3,0,0.049,0.012,0.040,0.020,0.020,-0.146,-0.089,0.988,0.010,-0.006,0.004,0.000,0.000,0.000,0.000,1,2,0,3,7,255,1224,250,436,1224
stim,478,478,0,770448.829,0.988,0.054,-0.067,-0.130,2331,1,173,2461,441,911,28,609,1,0.000,3,0,0.049,0.017,0.040,0.020,0.020,-0.146,-0.089,0.988,0.012,-0.012,0.004,0.000,0.000,0.000,0.000,1,2,0,3,7,255,1224,250,441,1224
stim,478,478,0,770453.829,0.988,0.054,-0.067,-0.130,2341,0,168,2467,411,905,29,615,1,0.000,3,0,0.069,0.012,0.040,-0.040,-0.040,-0.146,-0.088,0.987,0.010,-0.006,0.004,0.000,0.000,0.000,0.000,1,2,0,3,7,255,1224,250,446,1224
stim,478,478,0,770458.829,0.988,0.054,-0.067,-0.130,2333,1,173,2455,420,908,30,609,1,0.000,3,0,0.049,0.013,0.040,0.020,0.020,-0.147,-0.089,0.986,0.008,-0.010,-0.006,0.000,0.000,0.000,0.000,1,2,0,3,7,255,1224,250,451,1224
stim,478,478,0,770463.829,0.988,0.054,-0.067,-0.130,2335,0,177,2461,429,915,30,605,1,0.000,3,0,0.110,0.013,0.100,-0.040,0.020,-0.145,-0.089,0.987,0.008,-0.010,-0.012,0.000,0.000,0.000,0.000,1,2,0,3,7,255,1224,250,456,1224
stim,478,478,0,770468.829,0.988,0.054,-0.067,-0.130,2341,0,167,2467,425,907,33,612,1,0.000,3,0,0.104,0.019,0.100,0.020,0.020,-0.146,-0.089,0.989,0.016,-0.010,-0.012,0.000,0.000,0.000,0.000,1,2,0,3,7,255,1224,250,461,1224
stim,478,478,0,770473.829,0.988,0.054,-0.067,-0.130,2331,2,167,2469,424,904,25,613,1,0.000,3,0,0.110,0.018,0.100,-0.040,0.020,-0.146,-0.088,0.987,0.016,-0.008,-0.010,0.000,0.000,0.000,0.000,1,2,0,3,7,255,1224,250,466,1224
stim,478,478,0,770478.829,0.988,0.054,-0.067,-0.130,2335,0,173,2458,426,909,31,609,1,0.000,3,0,0.134,0.013,0.100,-0.040,0.080,-0.146,-0.088,0.988,0.012,-0.004,-0.002,0.000,0.000,0.000,0.000,1,2,0,3,7,255,1224,250,471,1224
stim,495,495,0,770483.829,0.988,0.054,-0.067,-0.130,2339,4,169,2459,411,904,31,612,1,0.000,3,0,0.166,0.011,0.160,-0.040,0.020,-0.146,-0.089,0.988,0.010,-0.004,-0.002,0.000,0.000,0.000,0.000,1,2,0,3,7,255,1224,250,476,1224
stim,495,495,0,770488.829,0.988,0.054,-0.067,-0.130,2329,0,173,2452,424,907,30,609,1,0.000,3,0,0.166,0.013,0.160,-0.040,0.020,-0.146,-0.089,0.988,0.012,-0.004,-0.002,0.000,0.000,0.000,0.000,1,2,0,3,7,255,1224,250,481,1224
stim,495,495,0,770493.829,0.988,0.054,-0.067,-0.130,2323,0,167,2449,426,901,25,601,1,0.000,3,0,0.166,0.011,0.160,-0.040,0.020,-0.146,-0.087,0.988,0.010,-0.004,0.004,0.000,0.000,0.000,0.000,1,2,0,3,7,255,1224,250,486,1224
stim,495,495,0,770498.829,0.988,0.054,-0.067,-0.130,2347,0,171,2459,432,907,30,605,1,0.000,3,0,0.183,0.008,0.160,-0.040,0.080,-0.146,-0.088,0.988,0.008,-0.002,0.004,0.000,0.000,0.000,0.000,1,2,0,3,7,255,1224,250,491,1224
stim,510,510,0,770503.829,0.988,0.054,-0.067,-0.130,2339,0,173,2469,435,911,30,607,1,0.000,3,0,0.110,0.006,0.100,-0.040,0.020,-0.147,-0.088,0.987,0.006,-0.002,0.004,0.000,0.000,0.000,0.000,1,2,0,3,7,255,1224,250,496,1224
stim,510,510,0,770508.829,0.988,0.054,-0.067,-0.130,2325,0,169,2451,429,902,26,603,1,0.000,3,0,0.049,0.008,0.040,0.020,0.020,-0.146,-0.088,0.988,0.008,-0.002,-0.002,0.000,0.000,0.000,0.000,1,2,0,3,7,255,1224,250,501,1224
stim,527,527,0,770513.829,0.988,0.054,-0.067,-0.130,2326,0,174,2469,423,909,30,611,1,0.000,3,0,0.110,0.013,0.100,0.020,-0.040,-0.146,-0.089,0.988,0.012,-0.004,-0.002,0.000,0.000,0.000,0.000,1,2,0,3,7,255,1224,250,506,1224
stim,527,527,0,770518.829,0.988,0.054,-0.067,-0.130,2331,0,169,2462,415,911,35,612,1,0.000,3,0,0.110,0.012,0.100,-0.040,0.020,-0.146,-0.088,0.988,0.012,0.000,-0.002,0.000,0.000,0.000,0.000,1,2,0,3,7,255,1224,250,511,1224
stim,527,527,0,770523.829,0.988,0.054,-0.067,-0.130,2347,0,173,2459,429,908,25,601,1,0.000,3,0,0.069,0.012,0.040,-0.040,-0.040,-0.147,-0.087,0.988,0.012,0.000,0.000,0.000,0.000,0.000,0.000,1,2,0,3,7,255,1224,250,516,1224
stim,527,527,0,770528.829,0.988,0.054,-0.067,-0.130,2335,0,172,2473,429,908,28,606,1,0.000,3,0,0.069,0.008,0.040,-0.040,-0.040,-0.146,-0.088,0.988,0.008,0.000,0.004,0.000,0.000,0.000,0.000,1,2,0,3,7,255,1224,250,521,1224
stim,560,560,0,770533.829,0.988,0.054,-0.067,-0.130,2333,0,171,2465,409,911,30,608,1,0.000,3,0,0.049,0.008,-0.020,0.020,-0.040,-0.146,-0.088,0.987,0.008,0.000,0.004,0.000,0.000,0.000,0.000,1,2,0,3,7,255,1224,250,526,1224
stim,560,560,0,770538.829,0.988,0.054,-0.067,-0.130,2342,0,173,2461,421,908,31,603,1,0.000,3,0,0.060,0.010,0.040,0.020,-0.040,-0.146,-0.088,0.988,0.010,0.000,0.002,0.000,0.000,0.000,0.000,1,2,0,3,7,255,1224,250,531,1224
stim,560,560,0,770543.830,0.988,0.054,-0.067,-0.130,2355,0,175,2458,417,906,30,606,1,0.000,3,0,0.060,0.012,0.040,0.020,-0.040,-0.146,-0.088,0.988,0.010,0.006,0.002,0.000,0.000,0.000,0.000,1,2,0,3,7,255,1224,250,536,1224
stim,560,560,0,770548.829,0.988,0.054,-0.067,-0.130,2342,0,177,2456,427,911,30,607,1,0.000,3,0,0.060,0.012,-0.020,-0.040,-0.040,-0.147,-0.088,0.988,0.010,0.006,0.002,0.000,0.000,0.000,0.000,1,2,0,3,7,255,1224,250,541,1224
stim,560,560,0,770553.829,0.988,0.054,-0.067,-0.130,2343,0,179,2462,416,915,33,609,1,0.000,3,0,0.110,0.002,-0.020,-0.040,-0.100,-0.147,-0.088,0.988,0.000,0.002,0.000,0.000,0.000,0.000,0.000,1,2,0,3,7,255,1224,250,546,1224
stim,560,560,0,770558.829,0.988,0.054,-0.067,-0.130,2343,0,173,2464,427,904,33,613,1,0.000,3,0,0.069,0.004,0.040,-0.040,-0.040,-0.147,-0.089,0.989,0.000,-0.004,0.000,0.000,0.000,0.000,0.000,1,2,0,3,7,255,1224,250,551,1224
stim,574,574,0,770563.829,0.988,0.054,-0.067,-0.130,2344,0,170,2454,416,905,30,611,1,0.000,3,0,0.190,0.006,0.100,0.020,-0.160,-0.146,-0.089,0.988,0.004,-0.004,0.004,0.000,0.000,0.000,0.000,1,2,0,3,7,255,1224,250,556,1224
stim,574,574,0,770568.829,0.988,0.054,-0.067,-0.130,2353,0,170,2471,437,907,28,608,1,0.000,3,0,0.104,0.007,-0.020,0.020,-0.100,-0.147,-0.089,0.989,0.004,-0.006,0.010,0.000,0.000,0.000,0.000,1,2,0,3,7,255,1224,250,561,1224
stim,574,574,0,770573.829,0.988,0.054,-0.067,-0.130,2349,0,173,2457,441,913,29,604,1,0.000,3,0,0.115,0.011,0.040,-0.040,-0.100,-0.146,-0.088,0.988,0.010,-0.004,0.004,0.000,0.000,0.000,0.000,1,2,0,3,7,255,1224,250,566,1224
stim,574,574,0,770578.829,0.988,0.054,-0.067,-0.130,2333,0,171,2471,435,909,28,613,1,0.000,3,0,0.069,0.012,0.040,-0.040,-0.040,-0.146,-0.088,0.987,0.010,0.006,-0.002,0.000,0.000,0.000,0.000,1,2,0,3,7,255,1224,250,571,1224
stim,590,590,0,770583.829,0.988,0.054,-0.067,-0.130,2335,0,170,2463,445,908,26,615,1,0.000,3,0,0.060,0.012,0.040,0.020,-0.040,-0.146,-0.089,0.987,0.010,0.006,-0.004,0.000,0.000,0.000,0.000,1,2,0,3,7,255,1224,250,576,1224
stim,590,590,0,770588.829,0.988,0.054,-0.067,-0.130,2341,0,173,2461,437,906,31,612,1,0.000,3,0,0.092,0.010,-0.020,0.080,-0.040,-0.146,-0.089,0.987,0.008,-0.006,-0.008,0.000,0.000,0.000,0.000,1,2,0,3,7,255,1224,250,581,1224
stim,606,606,0,770593.829,0.988,0.054,-0.067,-0.130,2332,0,171,2453,440,913,25,613,1,0.000,3,0,0.049,0.008,-0.020,0.020,-0.040,-0.146,-0.088,0.989,0.006,-0.006,-0.004,0.000,0.000,0.000,0.000,1,2,0,3,7,255,1224,250,586,1224
stim,606,606,0,770598.829,0.988,0.054,-0.067,-0.130,2343,0,176,2459,437,911,33,609,1,0.000,3,0,0.049,0.006,-0.020,-0.040,0.020,-0.146,-0.088,0.988,0.006,0.002,-0.002,0.000,0.000,0.000,0.000,1,2,0,3,7,255,1224,250,591,1224
stim,606,606,0,770603.829,0.988,0.054,-0.067,-0.130,2345,0,179,2455,431,905,31,605,1,0.000,3,0,0.069,0.006,0.040,-0.040,-0.040,-0.147,-0.089,0.987,0.006,0.002,-0.002,0.000,0.000,0.000,0.000,1,2,0,3,7,255,1224,250,596,1224
stim,606,606,0,770608.829,0.988,0.054,-0.067,-0.130,2332,1,169,2465,431,911,30,607,1,0.000,3,0,0.049,0.006,-0.020,-0.040,0.020,-0.146,-0.088,0.988,0.006,0.000,-0.002,0.000,0.000,0.000,0.000,1,2,0,3,7,255,1224,250,601,1224
stim,622,622,0,770613.829,0.988,0.054,-0.067,-0.130,2333,0,168,2455,428,904,25,615,1,0.000,3,0,0.069,0.007,0.040,-0.040,-0.040,-0.146,-0.089,0.989,0.006,-0.004,0.000,0.000,0.000,0.000,0.000,1,2,0,3,7,255,1224,250,606,1224
stim,622,622,0,770618.829,0.988,0.054,-0.067,-0.130,2343,0,175,2462,440,905,33,601,1,0.000,3,0,0.147,0.008,0.100,-0.100,-0.040,-0.146,-0.089,0.987,0.008,-0.002,0.000,0.000,0.000,0.000,0.000,1,2,0,3,7,255,1224,250,611,1224
stim,639,639,0,770623.829,0.988,0.054,-0.067,-0.130,2349,0,173,2460,437,909,33,609,1,0.000,3,0,0.110,0.008,0.100,-0.040,0.020,-0.146,-0.088,0.988,0.008,-0.002,0.000,0.000,0.000,0.000,0.000,1,2,0,3,7,255,1224,250,616,1224
stim,639,639,0,770628.829,0.988,0.054,-0.067,-0.130,2349,0,169,2463,424,909,35,605,1,0.000,3,0,0.110,0.008,0.100,-0.040,0.020,-0.146,-0.088,0.988,0.008,0.000,0.000,0.000,0.000,0.000,0.000,1,2,0,3,7,255,1224,250,621,1224
stim,671,671,0,770633.829,0.988,0.054,-0.067,-0.130,2351,0,169,2464,427,903,29,605,1,0.000,3,0,0.069,0.008,0.040,-0.040,-0.040,-0.146,-0.089,0.988,0.008,0.000,0.000,0.000,0.000,0.000,0.000,1,2,0,3,7,255,1224,250,626,1224
stim,671,671,0,770638.829,0.988,0.054,-0.067,-0.130,2341,0,175,2467,436,913,33,605,1,0.000,3,0,0.069,0.010,0.040,-0.040,-0.040,-0.146,-0.089,0.987,0.008,-0.006,-0.002,0.000,0.000,0.000,0.000,1,2,0,3,7,255,1224,250,631,1224
stim,671,671,0,770643.829,0.988,0.054,-0.067,-0.130,2341,0,174,2459,435,909,29,603,1,0.000,3,0,0.069,0.008,0.040,-0.040,-0.040,-0.146,-0.087,0.988,0.006,-0.006,-0.002,0.000,0.000,0.000,0.000,1,2,0,3,7,255,1224,250,636,1224
stim,671,671,0,770648.829,0.988,0.054,-0.067,-0.130,2349,0,177,2454,435,908,25,609,1,0.000,3,0,0.049,0.007,0.040,0.020,0.020,-0.146,-0.089,0.988,0.006,-0.004,-0.002,0.000,0.000,0.000,0.000,1,2,0,3,7,255,1224,250,641,1224
stim,671,671,0,770653.829,0.988,0.054,-0.067,-0.130,2341,0,172,2461,441,909,31,607,1,0.000,3,0,0.035,0.004,-0.020,0.020,0.020,-0.147,-0.089,0.987,0.000,-0.004,-0.002,0.000,0.000,0.000,0.000,1,2,0,3,7,255,1224,250,646,1224
stim,671,671,0,770658.829,0.988,0.054,-0.067,-0.130,2333,0,169,2468,426,905,29,611,1,0.000,3,0,0.049,0.008,0.040,0.020,0.020,-0.146,-0.089,0.987,0.006,-0.006,-0.004,0.000,0.000,0.000,0.000,1,2,0,3,7,255,1224,250,651,1224
stim,671,671,0,770663.829,0.988,0.054,-0.067,-0.130,2345,0,174,2455,427,915,33,615,1,0.000,3,0,0.049,0.008,0.040,0.020,0.020,-0.146,-0.089,0.988,0.006,-0.006,-0.004,0.000,0.000,0.000,0.000,1,2,0,3,7,255,1224,250,656,1224
stim,686,686,0,770668.829,0.988,0.054,-0.067,-0.130,2320,0,171,2466,435,909,25,603,1,0.000,3,0,0.060,0.006,0.040,-0.040,0.020,-0.146,-0.088,0.987,0.006,-0.002,-0.010,0.000,0.000,0.000,0.000,1,2,0,3,7,255,1224,250,661,1224
stim,686,686,0,770673.829,0.988,0.054,-0.067,-0.130,2336,0,171,2461,424,901,28,612,1,0.000,3,0,0.049,0.010,-0.020,-0.040,0.020,-0.145,-0.089,0.987,0.010,-0.002,-0.010,0.000,0.000,0.000,0.000,1,2,0,3,7,255,1224,250,666,1224
stim,686,686,0,770678.829,0.988,0.054,-0.067,-0.130,2333,0,171,2457,440,913,30,611,1,0.000,3,0,0.098,0.018,0.040,-0.040,0.080,-0.145,-0.088,0.988,0.018,0.004,-0.010,0.000,0.000,0.000,0.000,1,2,0,3,7,255,1224,250,671,1224
stim,686,686,0,770683.829,0.988,0.054,-0.067,-0.130,2331,0,175,2469,436,912,29,611,1,0.000,3,0,0.134,0.018,0.100,-0.040,0.080,-0.146,-0.089,0.988,0.018,-0.002,0.002,0.000,0.000,0.000,0.000,1,2,0,3,7,255,1224,250,676,1224
stim,686,686,0,770688.829,0.988,0.054,-0.067,-0.130,2339,0,175,2467,433,911,27,608,1,0.000,3,0,0.134,0.010,0.100,-0.040,0.080,-0.147,-0.090,0.988,0.010,-0.002,0.002,0.000,0.000,0.000,0.000,1,2,0,3,7,255,1224,250,681,1224
stim,686,686,0,770693.829,0.988,0.054,-0.067,-0.130,2339,0,173,2463,439,903,31,605,1,0.000,3,0,0.098,0.004,0.040,-0.040,0.080,-0.147,-0.089,0.988,0.000,-0.004,0.002,0.000,0.000,0.000,0.000,1,2,0,3,7,255,1224,250,686,1224
stim,702,702,0,770698.829,0.988,0.054,-0.067,-0.130,2327,0,172,2465,435,903,28,609,1,0.000,3,0,0.134,0.004,0.100,-0.040,0.080,-0.146,-0.088,0.988,0.000,-0.004,0.000,0.000,0.000,0.000,0.000,1,2,0,3,7,255,1224,250,691,1224
stim,719,719,0,770703.830,0.988,0.054,-0.067,-0.130,2330,0,175,2459,413,896,27,607,1,0.000,3,0,0.190,0.004,0.160,-0.100,0.020,-0.146,-0.089,0.988,0.004,-0.002,0.000,0.000,0.000,0.000,0.000,1,2,0,3,7,255,1224,250,696,1224
stim,719,719,0,770708.829,0.988,0.054,-0.067,-0.130,2335,0,170,2464,420,904,30,608,1,0.000,3,0,0.110,0.013,0.100,-0.040,0.020,-0.146,-0.088,0.988,0.012,0.004,0.002,0.000,0.000,0.000,0.000,1,2,0,3,7,255,1224,250,701,1224
stim,719,719,0,770713.829,0.988,0.054,-0.067,-0.130,2331,0,170,2473,421,906,28,615,1,0.000,3,0,0.134,0.004,0.100,-0.040,0.080,-0.147,-0.088,0.989,0.004,0.000,0.004,0.000,0.000,0.000,0.000,1,2,0,3,7,255,1224,250,706,1224
stim,719,719,0,770718.829,0.988,0.054,-0.067,-0.130,2336,0,171,2454,419,907,25,615,1,0.000,3,0,0.166,0.009,0.160,-0.040,0.020,-0.146,-0.088,0.988,0.008,0.004,0.002,0.000,0.000,0.000,0.000,1,2,0,3,7,255,1224,250,711,1224
stim,719,719,0,770723.829,0.988,0.054,-0.067,-0.130,2336,0,174,2463,432,913,33,607,1,0.000,3,0,0.134,0.006,0.100,-0.040,0.080,-0.146,-0.088,0.987,0.006,0.002,-0.002,0.000,0.000,0.000,0.000,1,2,0,3,7,255,1224,250,716,1224
stim,767,767,0,770728.829,0.988,0.054,-0.067,-0.130,2344,0,173,2463,428,909,30,611,1,0.000,3,0,0.110,0.007,0.100,-0.040,0.020,-0.146,-0.087,0.988,0.006,0.004,-0.002,0.000,0.000,0.000,0.000,1,2,0,3,7,255,1224,250,721,1224
stim,767,767,0,770733.829,0.988,0.054,-0.067,-0.130,2340,0,174,2467,431,906,34,611,1,0.000,3,0,0.110,0.002,0.100,-0.040,0.020,-0.147,-0.088,0.988,0.000,0.002,0.000,0.000,0.000,0.000,0.000,1,2,0,3,7,255,1224,250,726,1224
stim,767,767,0,770738.829,0.988,0.054,-0.067,-0.130,2342,0,173,2463,437,909,29,611,1,0.000,3,0,0.166,0.002,0.160,-0.040,0.020,-0.146,-0.088,0.987,0.000,0.002,0.000,0.000,0.000,0.000,0.000,1,2,0,3,7,255,1224,250,731,1224
stim,767,767,0,770743.829,0.988,0.054,-0.067,-0.130,2347,0,173,2457,426,908,30,606,1,0.000,3,0,0.060,0.003,0.040,-0.040,0.020,-0.146,-0.088,0.987,0.002,0.002,-0.006,0.000,0.000,0.000,0.000,1,2,0,3,7,255,1224,250,736,1224
stim,767,767,0,770748.829,0.988,0.054,-0.067,-0.130,2341,0,173,2460,431,906,27,612,1,0.000,3,0,0.060,0.008,0.040,-0.040,0.020,-0.146,-0.088,0.988,0.002,0.008,-0.006,0.000,0.000,0.000,0.000,1,2,0,3,7,255,1224,250,741,1224
stim,767,767,0,770753.829,0.988,0.054,-0.067,-0.130,2333,0,175,2452,429,906,30,605,1,0.000,3,0,0.110,0.010,0.100,-0.040,0.020,-0.146,-0.089,0.988,0.006,0.008,0.004,0.000,0.000,0.000,0.000,1,2,0,3,7,255,1224,250,746,1224
stim,784,784,0,770758.829,0.988,0.055,-0.067,-0.130,2340,0,173,2467,425,913,28,607,1,0.000,3,0,0.110,0.010,0.100,-0.040,0.020,-0.146,-0.087,0.988,0.006,0.008,0.004,0.000,0.000,0.000,0.000,1,2,0,3,7,255,1224,250,751,1224
stim,784,784,0,770763.829,0.988,0.055,-0.067,-0.130,2350,0,173,2470,435,907,31,605,1,0.000,3,0,0.115,0.006,0.100,-0.040,-0.040,-0.147,-0.089,0.988,0.006,0.000,0.004,0.000,0.000,0.000,0.000,1,2,0,3,7,255,1224,250,756,1224
stim,784,784,0,770768.829,0.988,0.055,-0.067,-0.130,2343,0,175,2453,429,904,29,611,1,0.000,3,0,0.110,0.004,0.100,-0.040,0.020,-0.146,-0.089,0.988,0.004,-0.002,0.002,0.000,0.000,0.000,0.000,1,2,0,3,7,255,1224,250,761,1224
stim,784,784,0,770773.829,0.988,0.055,-0.067,-0.130,2331,0,175,2464,429,907,33,605,1,0.000,3,0,0.060,0.003,0.040,-0.040,0.020,-0.146,-0.088,0.988,0.002,-0.002,0.004,0.000,0.000,0.000,0.000,1,2,0,3,7,255,1224,250,766,1224
stim,784,784,0,770778.829,0.988,0.055,-0.067,-0.130,2344,0,172,2471,427,908,27,614,1,0.000,3,0,0.060,0.006,0.040,-0.040,0.020,-0.146,-0.088,0.989,0.004,0.004,0.004,0.000,0.000,0.000,0.000,1,2,0,3,7,255,1224,250,771,1224
stim,784,784,0,770783.829,0.988,0.055,-0.067,-0.130,2341,0,174,2468,421,909,31,611,1,0.000,3,0,0.110,0.004,0.100,-0.040,0.020,-0.146,-0.088,0.987,0.002,0.004,0.004,0.000,0.000,0.000,0.000,1,2,0,3,7,255,1224,250,776,1224
stim,799,799,0,770788.830,0.988,0.055,-0.067,-0.130,2344,0,166,2457,413,907,35,611,1,0.000,3,0,0.060,0.008,0.040,-0.040,0.020,-0.146,-0.089,0.988,0.008,0.002,0.000,0.000,0.000,0.000,0.000,1,2,0,3,7,255,1224,250,781,1224
stim,799,799,0,770793.829,0.988,0.055,-0.067,-0.130,2322,0,171,2463,424,904,29,616,1,0.000,3,0,0.110,0.008,0.100,-0.040,0.020,-0.146,-0.089,0.988,0.008,0.000,0.000,0.000,0.000,0.000,0.000,1,2,0,3,7,255,1224,250,786,1224
stim,799,799,0,770798.829,0.988,0.055,-0.067,-0.130,2351,0,170,2471,420,907,29,612,1,0.000,3,0,0.110,0.008,0.100,-0.040,0.020,-0.146,-0.088,0.988,0.008,0.000,0.000,0.000,0.000,0.000,0.000,1,2,0,3,7,255,1224,250,791,1224
stim,799,799,0,770803.829,0.988,0.055,-0.067,-0.130,2333,0,169,2473,416,908,28,610,1,0.000,3,0,0.060,0.003,0.040,-0.040,0.020,-0.146,-0.087,0.987,0.002,0.002,0.000,0.000,0.000,0.000,0.000,1,2,0,3,7,255,1224,250,796,1224
stim,819,819,0,770808.829,0.988,0.055,-0.067,-0.130,2331,0,173,2469,413,907,31,608,1,0.000,3,0,0.115,0.008,0.100,-0.040,-0.040,-0.147,-0.088,0.989,-0.002,0.008,0.000,0.000,0.000,0.000,0.000,1,2,0,3,7,255,1224,250,801,1224
stim,819,819,0,770813.829,0.988,0.055,-0.067,-0.130,2341,0,179,2463,414,907,27,611,1,0.000,3,0,0.060,0.010,0.040,-0.040,0.020,-0.147,-0.087,0.988,-0.002,0.010,0.000,0.000,0.000,0.000,0.000,1,2,0,3,7,255,1224,250,806,1224
stim,831,831,0,770818.829,0.988,0.055,-0.067,-0.130,2335,1,171,2463,416,909,29,607,1,0.000,3,0,0.143,0.008,0.100,-0.100,0.020,-0.146,-0.088,0.989,-0.002,0.008,0.008,0.000,0.000,0.000,0.000,1,2,0,3,7,255,1224,250,811,1224
stim,831,831,0,770823.829,0.988,0.055,-0.067,-0.130,2336,0,170,2463,422,907,30,605,1,0.000,3,0,0.069,0.007,0.040,-0.040,-0.040,-0.147,-0.088,0.988,-0.006,0.004,0.000,0.000,0.000,0.000,0.000,1,2,0,3,7,255,1224,250,816,1224
stim,831,831,0,770828.829,0.988,0.055,-0.067,-0.130,2329,0,170,2467,416,905,27,613,1,0.000,3,0,0.069,0.002,0.040,-0.040,-0.040,-0.146,-0.089,0.988,0.002,0.000,0.000,0.000,0.000,0.000,0.000,1,2,0,3,7,255,1224,250,821,1224
stim,831,831,0,770833.829,0.988,0.055,-0.067,-0.130,2336,0,173,2459,423,904,29,612,1,0.000,3,0,0.069,0.006,0.040,-0.040,-0.040,-0.146,-0.088,0.988,0.006,0.000,-0.002,0.000,0.000,0.000,0.000,1,2,0,3,7,255,1224,250,826,1224
stim,862,862,0,770838.829,0.988,0.055,-0.067,-0.130,2345,0,171,2457,427,911,29,612,1,0.000,3,0,0.115,0.007,0.040,-0.040,-0.100,-0.146,-0.088,0.988,0.006,0.004,-0.002,0.000,0.000,0.000,0.000,1,2,0,3,7,255,1224,250,831,1224
stim,862,862,0,770843.829,0.988,0.055,-0.067,-0.130,2327,0,171,2475,435,903,28,612,1,0.000,3,0,0.110,0.004,0.040,0.020,-0.100,-0.146,-0.088,0.988,0.002,0.004,0.000,0.000,0.000,0.000,0.000,1,2,0,3,7,255,1224,250,836,1224
stim,862,862,0,770848.829,0.988,0.055,-0.067,-0.129,2336,0,176,2455,417,905,27,615,1,0.000,3,0,0.049,0.003,-0.020,0.020,-0.040,-0.147,-0.088,0.988,0.002,0.002,0.004,0.000,0.000,0.000,0.000,1,2,0,3,7,255,1224,250,841,1224
stim,862,862,0,770853.829,0.988,0.055,-0.067,-0.129,2345,0,173,2464,424,917,28,603,1,0.000,3,0,0.104,0.003,-0.020,0.020,-0.100,-0.146,-0.089,0.989,0.002,0.002,0.004,0.000,0.000,0.000,0.000,1,2,0,3,7,255,1224,250,846,1224
stim,862,862,0,770858.829,0.988,0.055,-0.067,-0.129,2336,2,171,2467,432,910,27,611,1,0.000,3,0,0.110,0.006,-0.020,-0.040,-0.100,-0.146,-0.088,0.989,0.006,0.002,0.008,0.000,0.000,0.000,0.000,1,2,0,3,7,255,1224,250,851,1224
stim,862,862,0,770863.829,0.988,0.055,-0.067,-0.129,2347,0,177,2454,424,909,30,613,1,0.000,3,0,0.104,0.006,-0.020,0.020,-0.100,-0.147,-0.089,0.987,0.006,0.000,0.008,0.000,0.000,0.000,0.000,1,2,0,3,7,255,1224,250,856,1224
stim,878,878,0,770868.829,0.988,0.055,-0.067,-0.129,2334,0,171,2457,430,907,30,613,1,0.000,3,0,0.049,0.004,-0.020,0.020,-0.040,-0.147,-0.089,0.987,-0.002,-0.004,-0.004,0.000,0.000,0.000,0.000,1,2,0,3,7,255,1224,250,861,1224
stim,878,878,0,770873.829,0.988,0.055,-0.067,-0.129,2344,0,171,2457,437,911,29,607,1,0.000,3,0,0.049,0.004,-0.020,0.020,-0.040,-0.146,-0.088,0.988,-0.002,-0.004,-0.004,0.000,0.000,0.000,0.000,1,2,0,3,7,255,1224,250,866,1224
stim,878,878,0,770878.829,0.988,0.055,-0.067,-0.129,2328,0,168,2467,443,909,30,615,1,0.000,3,0,0.085,0.007,-0.080,0.020,0.020,-0.146,-0.089,0.988,0.004,-0.006,0.004,0.000,0.000,0.000,0.000,1,2,0,3,7,255,1224,250,871,1224
stim,878,878,0,770883.829,0.988,0.055,-0.067,-0.129,2335,0,171,2469,440,907,28,612,1,0.000,3,0,0.060,0.007,0.040,0.020,-0.040,-0.146,-0.088,0.987,0.006,0.004,0.004,0.000,0.000,0.000,0.000,1,2,0,3,7,255,1224,250,876,1224
stim,894,894,0,770888.830,0.988,0.055,-0.067,-0.129,2339,0,171,2474,435,904,29,614,1,0.000,3,0,0.049,0.004,0.040,0.020,0.020,-0.146,-0.088,0.987,0.004,0.002,-0.006,0.000,0.000,0.000,0.000,1,2,0,3,7,255,1224,250,881,1224
stim,894,894,0,770893.829,0.988,0.055,-0.067,-0.129,2328,0,173,2467,441,905,31,611,1,0.000,3,0,0.060,0.006,0.040,0.020,-0.040,-0.146,-0.089,0.988,0.006,0.002,-0.006,0.000,0.000,0.000,0.000,1,2,0,3,7,255,1224,250,886,1224
stim,895,895,0,770898.829,0.988,0.055,-0.067,-0.129,2346,0,169,2461,441,909,31,612,1,0.000,3,0,0.060,0.008,0.040,-0.040,0.020,-0.146,-0.089,0.989,0.008,0.002,0.004,0.000,0.000,0.000,0.000,1,2,0,3,7,255,1224,250,891,1224
stim,895,895,0,770903.829,0.988,0.055,-0.067,-0.129,2347,0,167,2461,442,913,35,608,1,0.000,3,0,0.060,0.012,0.040,-0.040,0.020,-0.145,-0.088,0.988,0.012,0.002,0.004,0.000,0.000,0.000,0.000,1,2,0,3,7,255,1224,250,896,1224
stim,910,910,0,770908.829,0.988,0.055,-0.067,-0.129,2326,0,169,2451,436,871,25,603,1,0.000,3,0,0.098,0.013,0.040,-0.040,0.080,-0.147,-0.088,0.988,0.012,0.006,0.000,0.000,0.000,0.000,0.000,1,2,0,3,7,255,1224,250,901,1224
stim,910,910,0,770913.829,0.988,0.055,-0.067,-0.129,2335,1,175,2454,433,913,27,615,1,0.000,3,0,0.110,0.010,0.100,-0.040,0.020,-0.146,-0.090,0.987,0.008,0.006,-0.002,0.000,0.000,0.000,0.000,1,2,0,3,7,255,1224,250,906,1224
stim,926,926,0,770918.829,0.988,0.055,-0.067,-0.129,2347,0,173,2459,429,909,29,605,1,0.000,3,0,0.060,0.006,0.040,0.020,-0.040,-0.146,-0.088,0.987,-0.002,0.006,-0.004,0.000,0.000,0.000,0.000,1,2,0,3,7,255,1224,250,911,1224
stim,926,926,0,770923.829,0.988,0.055,-0.067,-0.129,2335,0,176,2475,431,906,27,615,1,0.000,3,0,0.069,0.004,0.040,-0.040,-0.040,-0.147,-0.088,0.988,-0.002,0.004,-0.004,0.000,0.000,0.000,0.000,1,2,0,3,7,255,1224,250,916,1224
stim,926,926,0,770928.829,0.988,0.055,-0.067,-0.129,2348,0,177,2459,429,907,28,609,1,0.000,3,0,0.110,0.004,0.100,-0.040,0.020,-0.146,-0.088,0.988,-0.002,0.004,0.000,0.000,0.000,0.000,0.000,1,2,0,3,7,255,1224,250,921,1224
stim,926,926,0,770933.829,0.988,0.055,-0.067,-0.129,2329,0,179,2455,429,910,29,615,1,0.000,3,0,0.110,0.004,0.100,-0.040,0.020,-0.146,-0.088,0.987,-0.002,0.004,0.000,0.000,0.000,0.000,0.000,1,2,0,3,7,255,1224,250,926,1224
stim,958,958,0,770938.830,0.988,0.055,-0.067,-0.129,2345,0,169,2470,445,906,29,615,1,0.000,3,0,0.060,0.004,0.040,0.020,-0.040,-0.146,-0.089,0.987,0.000,0.004,-0.006,0.000,0.000,0.000,0.000,1,2,0,3,7,255,1224,250,931,1224
stim,958,958,0,770943.829,0.988,0.055,-0.067,-0.129,2340,0,169,2462,441,911,29,605,1,0.000,3,0,0.104,0.008,0.100,0.020,0.020,-0.146,-0.088,0.988,0.006,0.006,-0.006,0.000,0.000,0.000,0.000,1,2,0,3,7,255,1224,250,936,1224
stim,958,958,0,770948.829,0.988,0.055,-0.067,-0.129,2331,0,175,2469,469,909,23,613,1,0.000,3,0,0.069,0.006,0.040,-0.040,-0.040,-0.146,-0.089,0.987,0.006,0.000,-0.006,0.000,0.000,0.000,0.000,1,2,0,3,7,255,1224,250,941,1224
stim,958,958,0,770953.829,0.988,0.055,-0.067,-0.129,2328,1,171,2461,466,915,26,612,1,0.000,3,0,0.115,0.006,0.100,-0.040,-0.040,-0.146,-0.088,0.987,0.002,0.006,-0.010,0.000,0.000,0.000,0.000,1,2,0,3,7,255,1224,250,946,1224
stim,958,958,0,770958.829,0.988,0.055,-0.067,-0.129,2331,2,173,2463,457,909,31,611,1,0.000,3,0,0.104,0.002,0.100,0.020,0.020,-0.146,-0.089,0.988,0.002,0.000,-0.010,0.000,0.000,0.000,0.000,1,2,0,3,7,255,1224,250,951,1224
stim,958,958,0,770963.829,0.988,0.055,-0.067,-0.129,2333,0,175,2456,453,917,29,610,1,0.000,3,0,0.049,0.006,0.040,0.020,0.020,-0.146,-0.089,0.988,0.006,0.000,0.000,0.000,0.000,0.000,0.000,1,2,0,3,7,255,1224,250,956,1224
stim,975,975,0,770968.829,0.988,0.055,-0.067,-0.129,2345,0,169,2470,447,904,28,608,1,0.000,3,0,0.060,0.006,0.040,-0.040,0.020,-0.146,-0.089,0.988,0.006,0.000,0.000,0.000,0.000,0.000,0.000,1,2,0,3,7,255,1224,250,961,1224
stim,975,975,0,770973.829,0.988,0.055,-0.067,-0.129,2283,0,173,2467,439,895,26,608,1,0.000,3,0,0.110,0.006,0.100,-0.040,0.020,-0.147,-0.088,0.989,0.006,0.000,0.000,0.000,0.000,0.000,0.000,1,2,0,3,7,255,1224,250,966,1224
stim,990,990,0,770978.829,0.988,0.055,-0.067,-0.129,2333,0,173,2463,427,913,29,611,1,0.000,3,0,0.049,0.004,0.040,0.020,0.020,-0.146,-0.088,0.988,0.000,0.004,0.004,0.000,0.000,0.000,0.000,1,2,0,3,7,255,1224,250,971,1224
stim,990,990,0,770983.829,0.988,0.055,-0.067,-0.129,2331,0,172,2461,442,915,26,615,1,0.000,3,0,0.049,0.006,0.040,0.020,0.020,-0.146,-0.088,0.988,0.000,0.006,0.004,0.000,0.000,0.000,0.000,1,2,0,3,7,255,1224,250,976,1224
stim,990,990,0,770988.830,0.988,0.055,-0.067,-0.129,2328,0,175,2475,451,913,25,611,1,0.000,3,0,0.060,0.007,0.040,-0.040,0.020,-0.146,-0.088,0.988,0.004,0.006,0.004,0.000,0.000,0.000,0.000,1,2,0,3,7,255,1224,250,981,1224
stim,991,991,0,770993.829,0.988,0.055,-0.067,-0.129,2347,0,178,2459,436,907,27,605,1,0.000,3,0,0.060,0.007,0.040,-0.040,0.020,-0.146,-0.089,0.987,0.004,0.006,-0.002,0.000,0.000,0.000,0.000,1,2,0,3,7,255,1224,250,986,1224
stim,1007,1007,0,770998.829,0.988,0.055,-0.067,-0.129,2331,0,169,2461,441,913,28,608,1,0.000,3,0,0.134,0.004,0.100,-0.040,0.080,-0.146,-0.088,0.988,0.000,0.004,0.000,0.000,0.000,0.000,0.000,1,2,0,3,7,255,1224,250,991,1224
stim,1007,1007,0,771003.829,0.988,0.055,-0.067,-0.129,2328,0,173,2475,441,904,26,611,1,0.000,3,0,0.110,0.004,0.040,-0.100,0.020,-0.146,-0.088,0.987,0.000,0.004,-0.004,0.000,0.000,0.000,0.000,1,2,0,3,7,255,1224,250,996,1224
stim,1022,1022,0,771008.829,0.988,0.055,-0.067,-0.129,2342,0,175,2456,444,909,25,615,1,0.000,3,0,0.104,0.006,0.100,0.020,0.020,-0.146,-0.088,0.989,0.004,0.004,0.000,0.000,0.000,0.000,0.000,1,2,0,3,7,255,1224,250,1001,1224
stim,1022,1022,0,771013.829,0.988,0.055,-0.067,-0.129,2335,0,179,2459,441,905,31,607,1,0.000,3,0,0.110,0.007,0.100,-0.040,0.020,-0.146,-0.088,0.989,0.004,0.006,0.008,0.000,0.000,0.000,0.000,1,2,0,3,7,255,1224,250,1006,1224
stim,1022,1022,0,771018.829,0.988,0.055,-0.067,-0.129,2334,0,172,2469,439,905,26,608,1,0.000,3,0,0.134,0.008,0.100,-0.040,0.080,-0.146,-0.089,0.988,0.006,0.006,0.008,0.000,0.000,0.000,0.000,1,2,0,3,7,255,1224,250,1011,1224
stim,1022,1022,0,771023.829,0.988,0.055,-0.067,-0.129,2341,1,170,2475,439,909,33,608,1,0.000,3,0,0.049,0.002,-0.020,-0.040,0.020,-0.147,-0.088,0.987,0.000,0.002,-0.002,0.000,0.000,0.000,0.000,1,2,0,3,7,255,1224,250,1016,1224
stim,1054,1054,0,771028.829,0.988,0.055,-0.067,-0.129,2329,1,179,2463,439,907,29,607,1,0.000,3,0,0.069,0.008,0.040,-0.040,-0.040,-0.147,-0.087,0.988,-0.008,0.002,-0.002,0.000,0.000,0.000,0.000,1,2,0,3,7,255,1224,250,1021,1224
stim,1054,1054,0,771033.829,0.988,0.055,-0.067,-0.129,2327,0,168,2459,439,907,28,613,1,0.000,3,0,0.060,0.016,0.040,0.020,-0.040,-0.146,-0.087,0.987,-0.008,0.014,-0.004,0.000,0.000,0.000,0.000,1,2,0,3,7,255,1224,250,1026,1224
stim,1054,1054,0,771038.829,0.988,0.055,-0.067,-0.129,2335,0,173,2455,441,903,34,606,1,0.000,3,0,0.143,0.015,-0.020,-0.100,-0.100,-0.146,-0.087,0.988,-0.004,0.014,0.004,0.000,0.000,0.000,0.000,1,2,0,3,7,255,1224,250,1031,1224
stim,1054,1054,0,771043.829,0.988,0.055,-0.067,-0.129,2329,4,171,2473,443,907,29,615,1,0.000,3,0,0.069,0.014,0.040,-0.040,-0.040,-0.146,-0.087,0.987,-0.002,0.014,-0.006,0.000,0.000,0.000,0.000,1,2,0,3,7,255,1224,250,1036,1224
stim,1054,1054,0,771048.829,0.988,0.055,-0.067,-0.129,2336,0,174,2463,441,905,25,609,1,0.000,3,0,0.060,0.014,0.040,0.020,-0.040,-0.147,-0.088,0.987,-0.002,0.014,-0.004,0.000,0.000,0.000,0.000,1,2,0,3,7,255,1224,250,1041,1224
stim,1054,1054,0,771053.829,0.988,0.055,-0.067,-0.129,2336,0,173,2467,443,907,31,614,1,0.000,3,0,0.060,0.004,0.040,-0.040,0.020,-0.146,-0.088,0.988,0.000,0.004,-0.004,0.000,0.000,0.000,0.000,1,2,0,3,7,255,1224,250,1046,1224
stim,1086,1086,0,771058.829,0.988,0.055,-0.067,-0.129,2331,0,171,2477,442,909,28,605,1,0.000,3,0,0.060,0.010,0.040,0.020,-0.040,-0.147,-0.089,0.987,-0.010,0.002,-0.004,0.000,0.000,0.000,0.000,1,2,0,3,7,255,1224,250,1051,1224
stim,1086,1086,0,771063.829,0.988,0.055,-0.067,-0.129,2329,1,168,2455,431,911,26,611,1,0.000,3,0,0.060,0.004,0.040,-0.040,0.020,-0.146,-0.088,0.987,0.000,0.004,-0.004,0.000,0.000,0.000,0.000,1,2,0,3,7,255,1224,250,1056,1224
stim,1086,1086,0,771068.829,0.988,0.055,-0.067,-0.129,2347,2,173,2464,441,913,27,608,1,0.000,3,0,0.060,0.011,-0.020,-0.040,-0.040,-0.148,-0.089,0.987,-0.010,-0.004,-0.004,0.000,0.000,0.000,0.000,1,2,0,3,7,255,1224,250,1061,1224
stim,1086,1086,0,771073.829,0.988,0.055,-0.067,-0.129,2339,0,173,2456,435,915,29,603,1,0.000,3,0,0.115,0.004,0.100,-0.040,-0.040,-0.147,-0.089,0.988,-0.004,-0.002,-0.002,0.000,0.000,0.000,0.000,1,2,0,3,7,255,1224,250,1066,1224
stim,1086,1086,0,771078.829,0.988,0.055,-0.067,-0.129,2335,0,170,2459,439,911,26,608,1,0.000,3,0,0.049,0.006,-0.020,0.020,-0.040,-0.147,-0.088,0.988,-0.006,-0.002,0.000,0.000,0.000,0.000,0.000,1,2,0,3,7,255,1224,250,1071,1224
stim,1086,1086,0,771083.830,0.988,0.055,-0.067,-0.129,2331,0,171,2460,438,917,26,609,1,0.000,3,0,0.147,0.004,0.100,-0.040,-0.100,-0.146,-0.089,0.988,-0.004,-0.002,0.004,0.000,0.000,0.000,0.000,1,2,0,3,7,255,1224,250,1076,1224
stim,1102,1102,0,771088.829,0.988,0.055,-0.067,-0.129,2336,0,175,2453,440,913,25,611,1,0.000,3,0,0.143,0.010,0.100,0.020,-0.100,-0.146,-0.087,0.988,0.006,0.008,0.004,0.000,0.000,0.000,0.000,1,2,0,3,7,255,1224,250,1081,1224
stim,1102,1102,0,771093.829,0.988,0.055,-0.067,-0.129,2331,2,174,2459,445,906,27,613,1,0.000,3,0,0.115,0.013,0.040,-0.040,-0.100,-0.146,-0.088,0.989,0.006,0.012,0.004,0.000,0.000,0.000,0.000,1,2,0,3,7,255,1224,250,1086,1224
stim,1102,1102,0,771098.829,0.988,0.055,-0.067,-0.129,2332,0,174,2458,455,907,27,611,1,0.000,3,0,0.104,0.013,-0.020,0.020,-0.100,-0.146,-0.088,0.988,0.006,0.012,0.004,0.000,0.000,0.000,0.000,1,2,0,3,7,255,1224,250,1091,1224
stim,1102,1102,0,771103.829,0.988,0.055,-0.067,-0.129,2333,0,170,2469,445,911,30,607,1,0.000,3,0,0.134,0.014,-0.080,-0.040,-0.100,-0.146,-0.088,0.989,0.008,0.012,0.008,0.000,0.000,0.000,0.000,1,2,0,3,7,255,1224,250,1096,1224
stim,1119,1119,1,771108.830,0.988,0.055,-0.067,-0.129,2342,0,171,2456,445,903,25,611,1,0.000,3,0,0.049,0.011,-0.020,0.020,-0.040,-0.146,-0.088,0.989,0.004,0.010,0.008,0.000,0.000,0.000,0.000,1,2,1,3,7,255,1224,250,1101,1224
stim,1119,1119,1,771113.829,0.988,0.055,-0.067,-0.129,2327,0,176,2471,443,907,24,615,1,0.000,3,0,0.104,0.007,-0.020,0.020,-0.100,-0.146,-0.089,0.988,0.004,0.006,0.008,0.000,0.000,0.000,0.000,1,2,1,3,7,255,1224,250,1106,1224
stim,1135,1135,1,771118.829,0.988,0.055,-0.067,-0.129,2335,0,170,2459,447,907,28,607,1,0.000,3,0,0.049,0.007,-0.020,0.020,-0.040,-0.146,-0.088,0.988,0.004,0.006,0.004,0.000,0.000,0.000,0.000,1,2,1,3,7,255,1224,250,1111,1224
stim,1135,1135,1,771123.829,0.988,0.055,-0.067,-0.129,2333,0,173,2461,456,907,25,603,1,0.000,3,0,0.049,0.007,-0.020,0.020,-0.040,-0.146,-0.088,0.987,0.004,0.006,-0.002,0.000,0.000,0.000,0.000,1,2,1,3,7,255,1224,250,1116,1224
stim,1135,1135,1,771128.829,0.988,0.055,-0.067,-0.129,2333,0,175,2459,439,903,27,607,1,0.000,3,0,0.049,0.007,-0.020,0.020,-0.040,-0.146,-0.089,0.988,0.004,0.006,-0.002,0.000,0.000,0.000,0.000,1,2,1,3,7,255,1224,250,1121,1224
stim,1135,1135,1,771133.829,0.988,0.055,-0.067,-0.129,2327,0,171,2451,451,894,27,609,1,0.000,3,0,0.110,0.013,0.100,0.020,-0.040,-0.146,-0.087,0.987,0.004,0.012,-0.008,0.000,0.000,0.000,0.000,1,2,1,3,7,255,1224,250,1126,1224
stim,1135,1135,1,771138.829,0.988,0.055,-0.067,-0.129,2330,0,169,2459,436,915,28,607,1,0.000,3,0,0.110,0.015,0.100,0.020,-0.040,-0.145,-0.088,0.988,0.004,0.014,-0.004,0.000,0.000,0.000,0.000,1,2,1,3,7,255,1224,250,1131,1224
stim,1166,1166,1,771143.829,0.988,0.055,-0.067,-0.129,2323,0,168,2449,441,908,29,605,1,0.000,3,0,0.151,0.017,0.040,-0.040,0.140,-0.145,-0.088,0.987,0.010,0.014,-0.008,0.000,0.000,0.000,0.000,1,2,1,3,7,255,1224,250,1136,1224
stim,1166,1166,1,771148.829,0.988,0.055,-0.067,-0.129,2329,0,173,2459,471,906,25,607,1,0.000,3,0,0.341,0.016,-0.220,0.020,0.260,-0.149,-0.089,0.988,0.010,0.012,-0.004,0.000,0.000,0.000,0.000,1,2,1,3,7,255,1224,250,1141,1224
stim,1166,1166,1,771153.829,0.988,0.055,-0.067,-0.129,2331,0,169,2455,475,903,25,608,1,0.000,3,0,0.383,0.022,-0.220,0.140,-0.280,-0.149,-0.091,0.985,-0.020,-0.010,-0.008,0.000,0.000,0.000,0.000,1,2,1,3,7,255,1224,250,1146,1224
stim,1166,1166,1,771158.829,0.988,0.055,-0.067,-0.129,2337,0,173,2457,441,905,30,605,1,0.000,3,0,1.148,0.022,0.520,0.080,-1.020,-0.143,-0.084,0.986,-0.020,-0.010,-0.022,0.000,0.000,0.000,0.000,1,2,1,3,7,255,1224,250,1151,1224
stim,1166,1166,1,771163.829,0.988,0.055,-0.067,-0.129,2335,0,169,2449,489,906,31,609,1,0.000,3,0,1.229,0.027,0.760,-0.220,0.940,-0.138,-0.089,0.990,0.016,0.022,-0.022,0.000,0.000,0.000,0.000,1,2,1,3,7,255,1224,250,1156,1224
stim,1166,1166,1,771168.829,0.988,0.055,-0.067,-0.129,2341,0,173,2453,409,911,25,604,1,0.000,3,0,1.309,0.027,-1.000,0.200,0.820,-0.150,-0.101,0.995,0.016,0.022,0.008,0.000,0.000,0.000,0.000,1,2,1,3,7,255,1224,250,1161,1224
stim,1184,1184,1,771173.829,0.988,0.055,-0.067,-0.129,2331,0,172,2452,471,907,23,604,1,0.000,3,0,0.424,0.022,0.100,-0.100,-0.400,-0.160,-0.077,0.976,0.002,0.022,0.008,0.000,0.000,0.000,0.000,1,2,1,3,7,255,1224,250,1166,1224
stim,1184,1184,1,771178.829,0.988,0.055,-0.067,-0.129,2333,0,171,2459,372,907,25,607,1,0.000,3,0,0.722,0.066,0.580,-0.160,-0.400,-0.133,-0.077,0.991,0.002,0.066,-0.002,0.000,0.000,0.000,0.000,1,2,1,3,7,255,1224,250,1171,1224
stim,1184,1184,1,771183.830,0.988,0.055,-0.067,-0.129,2341,0,171,2452,468,906,23,608,1,0.000,3,0,1.310,0.071,0.640,0.620,-0.960,-0.158,-0.121,0.988,-0.026,0.066,-0.002,0.000,0.000,0.000,0.000,1,2,1,3,7,255,1224,250,1176,1224
stim,1184,1184,1,771188.829,0.988,0.055,-0.066,-0.129,2331,0,172,2457,345,908,31,611,1,0.000,3,0,1.824,0.177,-0.700,-1.140,1.240,-0.117,-0.054,0.999,0.100,0.146,0.036,0.000,0.000,0.000,0.000,1,2,1,3,7,255,1224,250,1181,1224
stim,1200,1200,1,771193.829,0.988,0.055,-0.067,-0.129,2325,0,169,2457,443,907,25,601,1,0.000,3,0,1.801,0.333,0.520,1.360,1.060,-0.182,-0.116,0.964,-0.026,-0.332,0.036,0.000,0.000,0.000,0.000,1,2,1,3,7,255,1224,250,1186,1224
stim,1200,1200,1,771198.829,0.988,0.055,-0.067,-0.129,2330,0,170,2458,397,913,27,607,1,0.000,3,0,2.982,0.341,-1.000,-1.200,-2.540,-0.124,-0.070,1.023,0.198,0.278,0.036,0.000,0.000,0.000,0.000,1,2,1,3,7,255,1224,250,1191,1224
stim,1219,1219,1,771203.829,0.988,0.055,-0.067,-0.129,2333,0,171,2461,372,904,29,601,1,0.000,3,0,3.883,0.098,1.800,0.020,3.440,-0.148,-0.080,0.939,-0.096,0.020,-0.152,0.000,0.000,0.000,0.000,1,2,1,3,7,255,1224,250,1196,1224
stim,1219,1219,1,771208.829,0.988,0.055,-0.067,-0.129,2329,0,171,2467,283,906,29,604,1,0.000,3,0,4.453,0.036,-1.240,2.340,-3.580,-0.167,-0.132,1.034,-0.030,0.020,0.290,0.000,0.000,0.000,0.000,1,2,1,3,7,255,1224,250,1201,1224
stim,1219,1219,1,771213.829,0.988,0.055,-0.066,-0.129,2329,0,170,2460,501,913,28,607,1,0.000,3,0,4.796,0.036,0.220,-4.740,0.700,-0.114,-0.042,0.965,-0.030,0.020,-0.304,0.000,0.000,0.000,0.000,1,2,1,3,7,255,1224,250,1206,1224
stim,1219,1219,1,771218.829,0.988,0.054,-0.067,-0.129,2331,0,169,2471,622,905,27,613,1,0.000,3,0,5.868,0.071,1.500,5.140,2.400,-0.152,-0.092,0.977,-0.030,-0.064,-0.098,0.000,0.000,0.000,0.000,1,2,1,3,7,255,1224,250,1211,1224
stim,1234,1234,1,771223.829,0.988,0.055,-0.067,-0.129,2335,0,172,2458,393,907,25,601,1,0.000,3,0,3.664,0.073,-1.440,-3.100,-1.320,-0.161,-0.111,1.023,-0.036,-0.064,-0.098,0.000,0.000,0.000,0.000,1,2,1,3,7,255,1224,250,1216,1224
stim,1234,1234,1,771228.829,0.988,0.055,-0.067,-0.129,2330,0,170,2457,298,908,22,609,1,0.000,3,0,1.062,0.081,-0.520,0.500,-0.780,-0.145,-0.078,0.955,-0.050,-0.064,-0.098,0.000,0.000,0.000,0.000,1,2,1,3,7,255,1224,250,1221,1224
stim,1266,1266,1,771233.829,0.988,0.055,-0.067,-0.129,2331,0,172,2469,493,905,28,612,1,0.000,3,0,1.263,0.047,1.140,0.440,0.320,-0.143,-0.087,0.997,-0.036,0.030,0.082,0.000,0.000,0.000,0.000,1,2,1,3,7,255,1224,250,2,1224
stim,1266,1266,1,771238.829,0.988,0.055,-0.067,-0.129,2335,0,169,2461,763,903,23,605,1,0.000,3,0,0.675,0.036,0.520,-0.400,-0.160,-0.146,-0.093,0.996,0.020,0.030,0.082,0.000,0.000,0.000,0.000,1,2,1,3,7,255,1224,250,7,1224
stim,1266,1266,1,771243.829,0.988,0.054,-0.067,-0.129,2327,0,167,2459,765,907,28,601,1,0.000,3,0,0.358,0.036,-0.340,0.080,0.080,-0.143,-0.083,0.985,0.020,0.030,0.082,0.000,0.000,0.000,0.000,1,2,1,3,7,255,1224,250,12,1224
stim,1266,1266,1,771248.829,0.988,0.054,-0.067,-0.129,2333,0,171,2458,727,908,26,605,1,0.000,3,0,0.598,0.053,-0.520,0.140,0.260,-0.146,-0.083,0.982,0.018,0.050,-0.038,0.000,0.000,0.000,0.000,1,2,1,3,7,255,1224,250,17,1224
stim,1266,1266,1,771253.829,0.988,0.054,-0.067,-0.129,2337,0,167,2457,499,904,25,604,1,0.000,3,0,0.049,0.051,0.040,0.020,0.020,-0.149,-0.090,0.989,-0.012,0.050,-0.038,0.000,0.000,0.000,0.000,1,2,1,3,7,255,1224,250,22,1224
stim,1266,1266,1,771258.829,0.988,0.054,-0.067,-0.129,2331,0,162,2459,383,904,23,601,1,0.000,3,0,0.433,0.030,0.400,-0.040,-0.160,-0.150,-0.090,0.990,-0.018,-0.024,0.016,0.000,0.000,0.000,0.000,1,2,1,3,7,255,1224,250,27,1224
stim,1284,1284,1,771263.829,0.988,0.054,-0.067,-0.129,2332,0,163,2459,221,905,24,606,1,0.000,3,0,0.490,0.030,0.400,-0.040,-0.280,-0.148,-0.090,0.990,-0.018,-0.024,0.028,0.000,0.000,0.000,0.000,1,2,1,3,7,255,1224,250,32,1224
stim,1284,1284,1,771268.829,0.988,0.054,-0.067,-0.129,2339,0,168,2458,333,909,24,605,1,0.000,3,0,0.314,0.024,0.100,-0.100,-0.280,-0.146,-0.089,0.988,-0.010,-0.022,0.028,0.000,0.000,0.000,0.000,1,2,1,3,7,255,1224,250,37,1224
stim,1284,1284,1,771273.829,0.988,0.054,-0.067,-0.129,2333,0,166,2467,658,895,23,602,1,0.000,3,0,0.275,0.010,-0.220,-0.040,-0.160,-0.146,-0.088,0.988,0.000,-0.010,0.006,0.000,0.000,0.000,0.000,1,2,1,3,7,255,1224,250,42,1224
stim,1284,1284,1,771278.829,0.988,0.054,-0.067,-0.129,2331,0,168,2459,741,895,23,605,1,0.000,3,0,0.147,0.004,-0.140,0.020,-0.040,-0.145,-0.088,0.987,0.004,0.000,0.006,0.000,0.000,0.000,0.000,1,2,1,3,7,255,1224,250,47,1224
stim,1294,1294,1,771283.829,0.988,0.054,-0.067,-0.129,2335,0,169,2461,806,903,23,607,1,0.000,3,0,0.035,0.006,-0.020,0.020,0.020,-0.146,-0.087,0.986,0.000,0.006,-0.006,0.000,0.000,0.000,0.000,1,2,1,3,7,255,1224,250,52,1224
stim,1294,1294,1,771288.829,0.988,0.054,-0.067,-0.129,2319,0,167,2469,885,895,26,605,1,0.000,3,0,0.035,0.013,-0.020,0.020,0.020,-0.146,-0.089,0.988,0.012,0.006,-0.006,0.000,0.000,0.000,0.000,1,2,1,3,7,255,1224,250,57,1224
stim,1294,1294,1,771293.829,0.988,0.054,-0.067,-0.129,2331,0,163,2461,901,903,28,605,1,0.000,3,0,0.162,0.013,-0.140,0.080,0.020,-0.145,-0.087,0.988,0.010,0.008,0.002,0.000,0.000,0.000,0.000,1,2,1,3,7,255,1224,250,62,1224
stim,1294,1294,1,771298.829,0.988,0.054,-0.067,-0.129,2330,0,165,2457,795,896,31,605,1,0.000,3,0,0.092,0.014,-0.080,-0.040,0.020,-0.145,-0.088,0.988,0.012,0.008,0.002,0.000,0.000,0.000,0.000,1,2,1,3,7,255,1224,250,67,1224
stim,1311,1311,1,771303.830,0.988,0.054,-0.067,-0.129,2334,0,168,2469,875,905,31,601,1,0.000,3,0,0.092,0.013,-0.020,-0.040,0.080,-0.146,-0.088,0.986,0.010,0.008,-0.002,0.000,0.000,0.000,0.000,1,2,1,3,7,255,1224,250,72,1224
stim,1311,1311,1,771308.829,0.988,0.054,-0.067,-0.129,2323,0,159,2447,841,901,23,599,1,0.000,3,0,0.049,0.014,-0.020,-0.040,0.020,-0.145,-0.087,0.988,0.012,0.008,-0.002,0.000,0.000,0.000,0.000,1,2,1,3,7,255,1224,250,77,1224
stim,1326,1326,1,771313.829,0.988,0.054,-0.067,-0.129,2331,0,165,2463,941,907,29,599,1,0.000,3,0,0.193,0.009,0.100,-0.040,-0.160,-0.147,-0.087,0.988,0.004,0.008,-0.002,0.000,0.000,0.000,0.000,1,2,1,3,7,255,1224,250,82,1224
stim,1326,1326,1,771318.829,0.988,0.054,-0.067,-0.129,2323,0,159,2453,832,904,24,602,1,0.000,3,0,0.193,0.011,0.100,-0.040,-0.160,-0.148,-0.089,0.988,-0.008,0.008,0.002,0.000,0.000,0.000,0.000,1,2,1,3,7,255,1224,250,87,1224
stim,1326,1326,1,771323.829,0.988,0.054,-0.067,-0.129,2330,0,159,2453,757,905,27,603,1,0.000,3,0,0.110,0.016,-0.020,-0.040,-0.100,-0.148,-0.090,0.988,-0.010,-0.012,0.006,0.000,0.000,0.000,0.000,1,2,1,3,7,255,1224,250,92,1224
stim,1326,1326,1,771328.829,0.988,0.054,-0.067,-0.129,2327,0,165,2457,787,905,27,605,1,0.000,3,0,0.092,0.024,-0.020,-0.040,0.080,-0.146,-0.091,0.989,-0.010,-0.022,0.010,0.000,0.000,0.000,0.000,1,2,1,3,7,255,1224,250,97,1224
stim,1358,1358,1,771333.829,0.988,0.054,-0.067,-0.129,2339,0,160,2455,821,908,31,599,1,0.000,3,0,0.151,0.023,0.040,-0.040,0.140,-0.144,-0.088,0.988,0.008,-0.022,0.006,0.000,0.000,0.000,0.000,1,2,1,3,7,255,1224,250,102,1224
stim,1358,1358,1,771338.829,0.988,0.054,-0.067,-0.129,2331,0,159,2460,811,907,21,601,1,0.000,3,0,0.134,0.017,0.100,-0.040,0.080,-0.144,-0.084,0.988,0.016,0.006,0.002,0.000,0.000,0.000,0.000,1,2,1,3,7,255,1224,250,107,1224
stim,1358,1358,1,771343.829,0.988,0.054,-0.067,-0.129,2332,0,146,2455,781,907,22,603,1,0.000,3,0,0.190,0.043,0.100,0.020,-0.160,-0.144,-0.084,0.986,0.016,0.040,-0.006,0.000,0.000,0.000,0.000,1,2,1,3,7,255,1224,250,112,1224
stim,1358,1358,1,771348.829,0.988,0.054,-0.067,-0.129,2328,0,142,2453,711,903,25,597,1,0.000,3,0,0.292,0.042,-0.080,0.020,-0.280,-0.148,-0.089,0.986,0.014,0.040,-0.014,0.000,0.000,0.000,0.000,1,2,1,3,7,255,1224,250,117,1224
stim,1358,1358,1,771353.829,0.988,0.054,-0.067,-0.129,2327,0,155,2455,644,895,25,599,1,0.000,3,0,0.314,0.024,-0.140,0.020,-0.280,-0.150,-0.091,0.988,-0.020,-0.014,-0.014,0.000,0.000,0.000,0.000,1,2,1,3,7,255,1224,250,122,1224
stim,1358,1358,0,771358.829,0.988,0.054,-0.067,-0.129,2333,0,165,2456,637,905,29,605,1,0.000,3,0,0.177,0.043,-0.140,-0.040,-0.100,-0.148,-0.093,0.990,-0.020,-0.038,0.010,0.000,0.000,0.000,0.000,1,2,0,3,7,255,1224,250,127,1224
stim,1358,1358,0,771363.829,0.988,0.054,-0.067,-0.129,2333,0,166,2463,569,905,23,603,1,0.000,3,0,0.147,0.038,-0.020,-0.040,0.140,-0.146,-0.088,0.990,-0.006,-0.038,0.018,0.000,0.000,0.000,0.000,1,2,0,3,7,255,1224,250,132,1224
stim,1374,1374,0,771368.829,0.988,0.054,-0.067,-0.129,2325,0,173,2458,637,904,27,607,1,0.000,3,0,0.147,0.013,0.040,0.020,0.140,-0.142,-0.085,0.988,0.010,0.008,0.018,0.000,0.000,0.000,0.000,1,2,0,3,7,255,1224,250,137,1224
stim,1390,1390,0,771373.829,0.988,0.054,-0.067,-0.129,2341,0,169,2462,624,908,28,605,1,0.000,3,0,0.190,0.014,0.100,0.020,-0.160,-0.145,-0.088,0.987,0.012,0.008,-0.004,0.000,0.000,0.000,0.000,1,2,0,3,7,255,1224,250,142,1224
stim,1390,1390,0,771378.829,0.988,0.054,-0.067,-0.129,2334,0,168,2465,523,906,25,601,1,0.000,3,0,0.245,0.012,0.100,-0.040,-0.220,-0.149,-0.092,0.986,0.012,0.000,-0.006,0.000,0.000,0.000,0.000,1,2,0,3,7,255,1224,250,147,1224
stim,1406,1406,0,771383.829,0.988,0.054,-0.067,-0.129,2325,0,169,2467,540,910,28,603,1,0.000,3,0,0.110,0.036,0.100,-0.040,0.020,-0.150,-0.090,0.989,-0.022,-0.028,-0.006,0.000,0.000,0.000,0.000,1,2,0,3,7,255,1224,250,152,1224
stim,1406,1406,0,771388.829,0.988,0.054,-0.067,-0.129,2349,0,167,2474,533,909,31,607,1,0.000,3,0,0.134,0.036,0.100,-0.040,0.080,-0.147,-0.089,0.988,-0.022,-0.028,0.004,0.000,0.000,0.000,0.000,1,2,0,3,7,255,1224,250,157,1224
stim,1406,1406,0,771393.829,0.988,0.054,-0.067,-0.129,2339,0,165,2467,531,914,25,605,1,0.000,3,0,0.134,0.014,0.100,-0.040,0.080,-0.146,-0.087,0.988,-0.008,-0.012,0.004,0.000,0.000,0.000,0.000,1,2,0,3,7,255,1224,250,162,1224
stim,1406,1406,0,771398.829,0.988,0.054,-0.067,-0.129,2326,0,169,2457,583,903,27,605,1,0.000,3,0,0.205,0.012,0.160,-0.100,0.080,-0.145,-0.087,0.989,0.006,0.010,0.004,0.000,0.000,0.000,0.000,1,2,0,3,7,255,1224,250,167,1224
stim,1406,1406,0,771403.829,0.988,0.054,-0.067,-0.129,2349,0,168,2469,561,903,25,612,1,0.000,3,0,0.098,0.013,0.040,-0.040,0.080,-0.146,-0.086,0.988,0.006,0.012,0.004,0.000,0.000,0.000,0.000,1,2,0,3,7,255,1224,250,172,1224
stim,1406,1406,0,771408.829,0.988,0.054,-0.067,-0.129,2324,0,163,2450,571,911,30,597,1,0.000,3,0,0.173,0.020,-0.020,-0.100,0.140,-0.146,-0.086,0.986,0.004,0.020,-0.002,0.000,0.000,0.000,0.000,1,2,0,3,7,255,1224,250,177,1224
stim,1406,1406,0,771413.829,0.988,0.054,-0.067,-0.129,2341,0,169,2456,597,907,26,607,1,0.000,3,0,0.202,0.020,-0.020,0.020,0.200,-0.146,-0.088,0.986,0.000,0.020,-0.014,0.000,0.000,0.000,0.000,1,2,0,3,7,255,1224,250,182,1224
stim,1422,1422,0,771418.829,0.988,0.054,-0.067,-0.129,2344,0,166,2459,603,906,28,607,1,0.000,3,0,0.183,0.008,0.160,-0.040,0.080,-0.148,-0.091,0.988,-0.008,0.002,-0.014,0.000,0.000,0.000,0.000,1,2,0,3,7,255,1224,250,187,1224
stim,1422,1422,0,771423.829,0.988,0.054,-0.067,-0.129,2339,0,168,2475,597,905,25,607,1,0.000,3,0,0.338,0.029,0.280,-0.160,-0.100,-0.150,-0.093,0.991,-0.008,-0.028,0.006,0.000,0.000,0.000,0.000,1,2,0,3,7,255,1224,250,192,1224
stim,1438,1438,0,771428.829,0.988,0.054,-0.067,-0.129,2333,0,171,2466,549,915,25,609,1,0.000,3,0,0.370,0.029,0.100,-0.220,-0.280,-0.147,-0.089,0.989,-0.008,-0.028,0.012,0.000,0.000,0.000,0.000,1,2,0,3,7,255,1224,250,197,1224
stim,1438,1438,0,771433.829,0.988,0.054,-0.067,-0.129,2333,0,173,2453,562,909,28,611,1,0.000,3,0,0.104,0.010,-0.020,-0.100,0.020,-0.143,-0.082,0.983,-0.002,-0.010,0.012,0.000,0.000,0.000,0.000,1,2,0,3,7,255,1224,250,202,1224
stim,1471,1471,0,771438.829,0.988,0.054,-0.067,-0.129,2335,0,175,2467,591,905,31,602,1,0.000,3,0,0.395,0.049,0.220,0.260,0.200,-0.144,-0.083,0.987,0.008,0.048,-0.016,0.000,0.000,0.000,0.000,1,2,0,3,7,255,1224,250,207,1224
stim,1471,1471,0,771443.829,0.988,0.054,-0.067,-0.129,2336,0,177,2457,584,913,29,604,1,0.000,3,0,0.183,0.050,0.160,-0.040,0.080,-0.144,-0.090,0.993,0.014,0.048,-0.016,0.000,0.000,0.000,0.000,1,2,0,3,7,255,1224,250,212,1224
stim,1471,1471,0,771448.829,0.988,0.054,-0.067,-0.129,2328,0,171,2471,593,913,24,611,1,0.000,3,0,0.727,0.008,-0.200,-0.280,0.640,-0.147,-0.087,0.985,0.008,0.000,-0.016,0.000,0.000,0.000,0.000,1,2,0,3,7,255,1224,250,217,1224
stim,1471,1471,0,771453.829,0.988,0.054,-0.067,-0.129,2334,0,174,2460,609,907,26,615,1,0.000,3,0,0.511,0.016,0.280,0.260,-0.340,-0.157,-0.097,0.984,-0.016,-0.004,-0.010,0.000,0.000,0.000,0.000,1,2,0,3,7,255,1224,250,222,1224
stim,1471,1471,0,771458.829,0.988,0.054,-0.067,-0.129,2333,0,171,2463,619,909,24,607,1,0.000,3,0,1.358,0.016,0.160,-0.480,-1.260,-0.139,-0.091,0.999,-0.016,0.000,-0.010,0.000,0.000,0.000,0.000,1,2,0,3,7,255,1224,250,227,1224
stim,1471,1471,0,771463.829,0.988,0.054,-0.067,-0.129,2339,0,177,2456,549,909,27,603,1,0.000,3,0,2.047,0.050,-0.140,-0.100,2.040,-0.133,-0.065,0.973,0.050,0.002,-0.010,0.000,0.000,0.000,0.000,1,2,0,3,7,255,1224,250,232,1224
stim,1486,1486,0,771468.829,0.988,0.054,-0.067,-0.129,2347,0,168,2475,603,913,25,613,1,0.000,3,0,1.148,0.050,0.340,1.060,-0.280,-0.168,-0.108,0.991,0.050,0.002,0.080,0.000,0.000,0.000,0.000,1,2,0,3,7,255,1224,250,237,1224
stim,1486,1486,0,771473.829,0.988,0.054,-0.067,-0.129,2333,0,172,2475,527,907,27,608,1,0.000,3,0,2.566,0.052,-0.400,-1.700,-1.880,-0.139,-0.091,1.007,0.050,0.016,0.080,0.000,0.000,0.000,0.000,1,2,0,3,7,255,1224,250,242,1224
stim,1486,1486,0,771478.829,0.988,0.054,-0.067,-0.129,2344,0,170,2469,575,908,26,613,1,0.000,3,0,2.751,0.016,0.580,0.760,2.580,-0.137,-0.067,0.957,0.002,0.016,0.080,0.000,0.000,0.000,0.000,1,2,0,3,7,255,1224,250,247,1224
stim,1486,1486,0,771483.829,0.988,0.054,-0.067,-0.129,2333,0,173,2477,524,907,28,616,1,0.000,3,0,2.150,0.016,-0.400,0.680,-2.000,-0.161,-0.111,1.011,0.002,0.016,0.180,0.000,0.000,0.000,0.000,1,2,0,3,7,255,1224,250,252,1224
stim,1502,1502,0,771488.829,0.988,0.054,-0.067,-0.129,2333,0,174,2475,475,906,27,611,1,0.000,3,0,2.059,0.166,0.280,-1.620,1.240,-0.138,-0.072,0.982,0.002,0.166,-0.078,0.000,0.000,0.000,0.000,1,2,0,3,7,255,1224,250,257,1224
stim,1503,1503,0,771493.829,0.988,0.054,-0.067,-0.129,2336,0,176,2459,522,903,27,611,1,0.000,3,0,1.778,0.087,0.220,1.480,-0.960,-0.145,-0.097,0.981,0.030,-0.082,-0.062,0.000,0.000,0.000,0.000,1,2,0,3,7,255,1224,250,262,1224
stim,1521,1521,0,771498.829,0.988,0.054,-0.067,-0.129,2347,0,177,2459,483,910,25,605,1,0.000,3,0,1.519,0.065,-0.400,-0.780,1.240,-0.155,-0.081,0.992,0.030,0.058,-0.062,0.000,0.000,0.000,0.000,1,2,0,3,7,255,1224,250,267,1224
stim,1521,1521,0,771503.830,0.988,0.054,-0.067,-0.129,2335,0,175,2456,504,907,28,608,1,0.000,3,0,1.871,0.087,0.760,0.320,-1.680,-0.136,-0.100,0.990,0.030,-0.082,0.014,0.000,0.000,0.000,0.000,1,2,0,3,7,255,1224,250,272,1224
stim,1521,1521,0,771508.829,0.988,0.054,-0.067,-0.129,2332,0,178,2454,504,903,35,615,1,0.000,3,0,2.248,0.110,-0.880,-0.340,2.040,-0.156,-0.072,0.977,-0.094,0.058,0.014,0.000,0.000,0.000,0.000,1,2,0,3,7,255,1224,250,277,1224
stim,1521,1521,0,771513.829,0.988,0.054,-0.067,-0.129,2343,0,171,2462,475,904,25,605,1,0.000,3,0,2.600,0.155,1.080,0.760,-2.240,-0.138,-0.106,1.004,0.130,-0.084,0.014,0.000,0.000,0.000,0.000,1,2,0,3,7,255,1224,250,282,1224
stim,1521,1521,0,771518.829,0.988,0.054,-0.067,-0.129,2343,0,174,2457,482,907,29,612,1,0.000,3,0,2.742,0.184,-1.000,-1.260,2.220,-0.154,-0.069,0.970,-0.140,0.120,-0.110,0.000,0.000,0.000,0.000,1,2,0,3,7,255,1224,250,287,1224
stim,1521,1521,0,771523.829,0.988,0.054,-0.067,-0.129,2331,0,179,2454,441,913,27,605,1,0.000,3,0,2.772,0.191,1.000,1.480,-2.120,-0.137,-0.105,1.005,0.150,-0.118,0.164,0.000,0.000,0.000,0.000,1,2,0,3,7,255,1224,250,292,1224
stim,1566,1566,0,771528.829,0.988,0.054,-0.067,-0.129,2329,0,170,2472,464,905,29,607,1,0.000,3,0,2.340,0.168,-0.760,-1.440,1.680,-0.157,-0.074,0.974,-0.140,0.092,-0.130,0.000,0.000,0.000,0.000,1,2,0,3,7,255,1224,250,297,1224
stim,1566,1566,0,771533.829,0.988,0.054,-0.067,-0.129,2342,0,173,2459,456,906,25,607,1,0.000,3,0,1.700,0.177,0.580,1.120,-1.140,-0.135,-0.102,1.000,0.154,-0.088,0.108,0.000,0.000,0.000,0.000,1,2,0,3,7,255,1224,250,302,1224
stim,1566,1566,0,771538.829,0.988,0.054,-0.067,-0.129,2331,0,172,2467,457,909,25,612,1,0.000,3,0,0.763,0.153,-0.280,-0.600,0.380,-0.158,-0.077,0.979,-0.138,0.066,-0.074,0.000,0.000,0.000,0.000,1,2,0,3,7,255,1224,250,307,1224
stim,1566,1566,0,771543.830,0.988,0.054,-0.067,-0.129,2347,0,171,2464,456,913,27,611,1,0.000,3,0,0.120,0.137,0.040,0.080,0.080,-0.137,-0.098,0.993,0.124,-0.058,0.042,0.000,0.000,0.000,0.000,1,2,0,3,7,255,1224,250,312,1224
stim,1566,1566,0,771548.829,0.988,0.054,-0.067,-0.129,2335,0,179,2465,434,915,27,615,1,0.000,3,0,0.503,0.072,0.160,0.260,-0.400,-0.152,-0.083,0.985,-0.064,0.032,-0.026,0.000,0.000,0.000,0.000,1,2,0,3,7,255,1224,250,317,1224
stim,1566,1566,0,771553.829,0.988,0.054,-0.067,-0.129,2335,1,175,2460,453,910,26,615,1,0.000,3,0,0.605,0.023,-0.340,-0.480,0.140,-0.146,-0.086,0.986,0.006,0.022,-0.018,0.000,0.000,0.000,0.000,1,2,0,3,7,255,1224,250,322,1224
stim,1566,1566,0,771558.829,0.988,0.054,-0.067,-0.129,2351,0,169,2459,435,909,27,606,1,0.000,3,0,0.531,0.023,0.280,0.440,-0.100,-0.142,-0.100,0.991,0.006,0.022,-0.018,0.000,0.000,0.000,0.000,1,2,0,3,7,255,1224,250,327,1224
stim,1582,1582,0,771563.829,0.988,0.054,-0.067,-0.129,2345,0,173,2462,442,906,29,615,1,0.000,3,0,0.370,0.023,-0.280,-0.220,-0.100,-0.153,-0.073,0.985,0.006,0.022,-0.018,0.000,0.000,0.000,0.000,1,2,0,3,7,255,1224,250,332,1224
stim,1582,1582,0,771568.829,0.988,0.054,-0.067,-0.129,2351,0,175,2461,456,908,25,614,1,0.000,3,0,0.273,0.103,0.220,0.020,-0.160,-0.140,-0.098,0.992,0.078,-0.068,0.036,0.000,0.000,0.000,0.000,1,2,0,3,7,255,1224,250,337,1224
stim,1582,1582,0,771573.829,0.988,0.054,-0.067,-0.129,2283,0,177,2464,403,903,29,612,1,0.000,3,0,0.353,0.048,-0.280,0.200,0.080,-0.148,-0.093,0.987,0.000,-0.048,-0.004,0.000,0.000,0.000,0.000,1,2,0,3,7,255,1224,250,342,1224
stim,1582,1582,0,771578.829,0.988,0.054,-0.067,-0.129,2354,0,173,2457,446,907,30,609,1,0.000,3,0,0.316,0.048,0.160,-0.220,-0.160,-0.149,-0.074,0.985,0.000,-0.048,-0.004,0.000,0.000,0.000,0.000,1,2,0,3,7,255,1224,250,347,1224
stim,1582,1582,0,771583.829,0.988,0.054,-0.067,-0.129,2343,0,173,2475,429,915,25,611,1,0.000,3,0,0.413,0.048,0.400,0.020,-0.100,-0.141,-0.098,0.991,0.000,-0.048,-0.004,0.000,0.000,0.000,0.000,1,2,0,3,7,255,1224,250,352,1224
stim,1598,1598,0,771588.829,0.988,0.054,-0.067,-0.129,2335,0,169,2456,383,912,28,608,1,0.000,3,0,0.598,0.074,-0.580,0.140,-0.040,-0.149,-0.096,0.988,-0.004,-0.074,0.010,0.000,0.000,0.000,0.000,1,2,0,3,7,255,1224,250,357,1224
stim,1598,1598,0,771593.829,0.988,0.054,-0.067,-0.129,2336,0,175,2455,423,909,26,613,1,0.000,3,0,0.350,0.074,0.220,-0.160,-0.220,-0.148,-0.074,0.982,-0.004,-0.074,0.010,0.000,0.000,0.000,0.000,1,2,0,3,7,255,1224,250,362,1224
stim,1619,1619,0,771598.829,0.988,0.054,-0.067,-0.129,2336,1,175,2461,424,909,29,609,1,0.000,3,0,0.735,0.018,0.700,-0.100,0.200,-0.143,-0.091,0.992,-0.004,-0.018,0.010,0.000,0.000,0.000,0.000,1,2,0,3,7,255,1224,250,367,1224
stim,1619,1619,0,771603.829,0.988,0.054,-0.067,-0.129,2343,0,177,2464,426,903,29,605,1,0.000,3,0,0.641,0.019,-0.580,0.080,0.260,-0.150,-0.100,0.994,0.006,-0.018,0.040,0.000,0.000,0.000,0.000,1,2,0,3,7,255,1224,250,372,1224
stim,1619,1619,0,771608.829,0.988,0.054,-0.067,-0.129,2341,0,171,2459,437,903,27,607,1,0.000,3,0,0.808,0.019,-0.460,0.080,-0.660,-0.150,-0.078,0.980,0.006,-0.018,0.040,0.000,0.000,0.000,0.000,1,2,0,3,7,255,1224,250,377,1224
stim,1619,1619,0,771613.829,0.988,0.054,-0.067,-0.129,2340,1,173,2461,438,909,28,604,1,0.000,3,0,1.100,0.040,1.020,-0.100,-0.400,-0.139,-0.085,0.984,0.006,0.040,-0.050,0.000,0.000,0.000,0.000,1,2,0,3,7,255,1224,250,382,1224
stim,1632,1632,0,771618.829,0.988,0.054,-0.067,-0.129,2327,0,173,2473,435,908,27,614,1,0.000,3,0,1.078,0.072,0.400,-0.040,1.000,-0.144,-0.104,0.997,0.060,0.040,-0.050,0.000,0.000,0.000,0.000,1,2,0,3,7,255,1224,250,387,1224
stim,1632,1632,0,771623.829,0.988,0.054,-0.067,-0.129,2335,0,172,2467,433,905,26,607,1,0.000,3,0,1.095,0.060,-1.000,0.080,0.440,-0.157,-0.085,0.989,0.060,0.000,0.022,0.000,0.000,0.000,0.000,1,2,0,3,7,255,1224,250,392,1224
stim,1664,1664,0,771628.829,0.988,0.054,-0.067,-0.129,2341,0,172,2467,435,905,22,615,1,0.000,3,0,1.388,0.074,-0.140,-0.040,-1.380,-0.150,-0.074,0.979,-0.074,0.000,0.022,0.000,0.000,0.000,0.000,1,2,0,3,7,255,1224,250,397,1224
stim,1664,1664,0,771633.829,0.988,0.054,-0.067,-0.129,2345,0,170,2464,427,913,29,607,1,0.000,3,0,1.276,0.074,0.960,-0.040,-0.840,-0.132,-0.098,0.989,-0.074,0.000,-0.002,0.000,0.000,0.000,0.000,1,2,0,3,7,255,1224,250,402,1224
stim,1664,1664,0,771638.829,0.988,0.054,-0.067,-0.129,2329,0,175,2467,427,908,23,608,1,0.000,3,0,1.549,0.116,0.160,-0.040,1.540,-0.141,-0.103,0.995,0.102,-0.056,-0.002,0.000,0.000,0.000,0.000,1,2,0,3,7,255,1224,250,407,1224
stim,1664,1664,0,771643.829,0.988,0.054,-0.067,-0.129,2331,0,170,2477,431,913,28,614,1,0.000,3,0,1.424,0.116,-0.580,-0.040,1.300,-0.161,-0.077,0.987,0.102,-0.056,0.002,0.000,0.000,0.000,0.000,1,2,0,3,7,255,1224,250,412,1224
stim,1664,1664,0,771648.829,0.988,0.054,-0.067,-0.129,2343,0,173,2461,427,909,26,608,1,0.000,3,0,1.386,0.151,0.100,0.080,-1.380,-0.157,-0.073,0.985,-0.136,0.066,0.002,0.000,0.000,0.000,0.000,1,2,0,3,7,255,1224,250,417,1224
stim,1664,1664,0,771653.829,0.988,0.054,-0.067,-0.129,2347,0,171,2473,429,909,28,615,1,0.000,3,0,1.995,0.151,0.460,0.080,-1.940,-0.135,-0.099,0.989,-0.136,0.066,0.002,0.000,0.000,0.000,0.000,1,2,0,3,7,255,1224,250,422,1224
stim,1664,1664,0,771658.829,0.988,0.054,-0.067,-0.129,2337,0,177,2463,431,909,26,606,1,0.000,3,0,0.646,0.157,-0.080,-0.040,0.640,-0.132,-0.104,0.988,0.140,-0.072,-0.006,0.000,0.000,0.000,0.000,1,2,0,3,7,255,1224,250,427,1224
stim,1683,1683,0,771663.829,0.988,0.054,-0.067,-0.129,2343,0,172,2459,431,909,28,609,1,0.000,3,0,2.162,0.157,-0.020,-0.100,2.160,-0.149,-0.085,0.986,0.140,-0.072,-0.006,0.000,0.000,0.000,0.000,1,2,0,3,7,255,1224,250,432,1224
stim,1683,1683,0,771668.829,0.988,0.054,-0.067,-0.129,2330,0,175,2461,429,907,29,613,1,0.000,3,0,0.440,0.039,0.220,0.020,0.380,-0.163,-0.077,0.989,-0.036,0.016,-0.006,0.000,0.000,0.000,0.000,1,2,0,3,7,255,1224,250,437,1224
stim,1683,1683,0,771673.829,0.988,0.054,-0.067,-0.129,2328,0,179,2461,419,908,25,608,1,0.000,3,0,1.897,0.039,0.160,0.200,-1.880,-0.150,-0.087,0.990,-0.036,0.016,0.024,0.000,0.000,0.000,0.000,1,2,0,3,7,255,1224,250,442,1224
stim,1683,1683,0,771678.829,0.988,0.054,-0.067,-0.128,2332,0,177,2471,425,909,27,612,1,0.000,3,0,1.268,0.032,-0.020,0.140,-1.260,-0.133,-0.095,0.987,-0.032,0.004,0.024,0.000,0.000,0.000,0.000,1,2,0,3,7,255,1224,250,447,1224
stim,1683,1683,0,771683.829,0.988,0.054,-0.067,-0.129,2343,0,169,2443,423,905,23,605,1,0.000,3,0,1.146,0.119,0.220,-0.100,1.120,-0.135,-0.093,0.987,0.118,-0.018,-0.016,0.000,0.000,0.000,0.000,1,2,0,3,7,255,1224,250,452,1224
stim,1683,1683,0,771688.829,0.988,0.054,-0.067,-0.129,2344,1,171,2458,427,907,27,607,1,0.000,3,0,1.867,0.119,0.040,-0.160,1.860,-0.153,-0.087,0.990,0.118,-0.018,-0.016,0.000,0.000,0.000,0.000,1,2,0,3,7,255,1224,250,457,1224
stim,1712,1712,0,771693.829,0.988,0.054,-0.067,-0.129,2341,0,179,2469,427,901,26,613,1,0.000,3,0,0.224,0.063,-0.220,-0.040,0.020,-0.160,-0.082,0.988,-0.062,-0.008,0.018,0.000,0.000,0.000,0.000,1,2,0,3,7,255,1224,250,462,1224
stim,1712,1712,0,771698.829,0.988,0.054,-0.067,-0.129,2332,0,181,2452,429,915,22,615,1,0.000,3,0,1.582,0.062,0.220,0.140,-1.560,-0.149,-0.086,0.986,-0.062,0.006,0.018,0.000,0.000,0.000,0.000,1,2,0,3,7,255,1224,250,467,1224
stim,1712,1712,0,771703.831,0.988,0.054,-0.067,-0.128,2339,0,174,2455,421,904,24,613,1,0.000,3,0,0.991,0.025,0.520,0.080,-0.840,-0.136,-0.093,0.988,-0.024,0.006,-0.010,0.000,0.000,0.000,0.000,1,2,0,3,7,255,1224,250,472,1224
stim,1713,1713,0,771708.829,0.988,0.054,-0.067,-0.129,2333,0,179,2469,413,906,29,615,1,0.000,3,0,0.971,0.080,0.220,-0.100,0.940,-0.140,-0.091,0.993,0.080,-0.008,-0.010,0.000,0.000,0.000,0.000,1,2,0,3,7,255,1224,250,477,1224
stim,1726,1726,0,771713.829,0.988,0.054,-0.067,-0.129,2341,0,181,2458,415,906,28,611,1,0.000,3,0,1.445,0.080,-0.460,-0.160,1.360,-0.150,-0.086,0.990,0.080,-0.008,0.028,0.000,0.000,0.000,0.000,1,2,0,3,7,255,1224,250,482,1224
stim,1726,1726,0,771718.829,0.988,0.054,-0.067,-0.129,2335,0,172,2465,419,904,25,613,1,0.000,3,0,0.426,0.036,-0.400,-0.040,0.140,-0.155,-0.085,0.985,-0.036,0.000,0.028,0.000,0.000,0.000,0.000,1,2,0,3,7,255,1224,250,487,1224
stim,1726,1726,0,771723.829,0.988,0.054,-0.067,-0.129,2339,0,175,2463,411,909,27,608,1,0.000,3,0,0.886,0.036,0.280,0.020,-0.840,-0.148,-0.090,0.983,-0.036,0.000,-0.018,0.000,0.000,0.000,0.000,1,2,0,3,7,255,1224,250,492,1224
stim,1726,1726,0,771728.829,0.988,0.054,-0.067,-0.129,2334,0,175,2463,413,915,25,615,1,0.000,3,0,0.789,0.016,0.640,-0.040,-0.460,-0.141,-0.091,0.988,-0.010,-0.012,-0.018,0.000,0.000,0.000,0.000,1,2,0,3,7,255,1224,250,497,1224
stim,1759,1759,0,771733.829,0.988,0.054,-0.067,-0.129,2342,1,174,2467,405,911,27,613,1,0.000,3,0,0.477,0.034,0.340,-0.100,0.320,-0.144,-0.087,0.992,0.032,-0.012,0.000,0.000,0.000,0.000,0.000,1,2,0,3,7,255,1224,250,502,1224
stim,1759,1759,0,771738.829,0.988,0.054,-0.067,-0.129,2336,0,176,2461,391,907,29,611,1,0.000,3,0,0.652,0.039,-0.280,-0.100,0.580,-0.148,-0.084,0.992,0.032,0.022,0.032,0.000,0.000,0.000,0.000,1,2,0,3,7,255,1224,250,507,1224
stim,1759,1759,0,771743.829,0.988,0.054,-0.067,-0.129,2331,0,177,2461,405,905,29,609,1,0.000,3,0,0.402,0.030,-0.400,-0.040,0.020,-0.150,-0.087,0.986,-0.020,0.022,0.032,0.000,0.000,0.000,0.000,1,2,0,3,7,255,1224,250,512,1224
stim,1759,1759,0,771748.829,0.988,0.054,-0.067,-0.128,2335,0,174,2456,408,910,23,615,1,0.000,3,0,0.284,0.021,-0.020,-0.040,-0.280,-0.147,-0.089,0.984,-0.020,-0.006,-0.010,0.000,0.000,0.000,0.000,1,2,0,3,7,255,1224,250,517,1224
stim,1759,1759,0,771753.829,0.988,0.054,-0.067,-0.128,2344,0,179,2459,411,909,25,606,1,0.000,3,0,0.467,0.006,0.400,-0.100,-0.220,-0.145,-0.089,0.987,0.000,-0.006,-0.010,0.000,0.000,0.000,0.000,1,2,0,3,7,255,1224,250,522,1224
stim,1759,1759,0,771758.829,0.988,0.054,-0.067,-0.128,2343,0,177,2457,405,915,31,611,1,0.000,3,0,0.300,0.019,0.280,-0.100,-0.040,-0.145,-0.087,0.991,0.018,-0.006,-0.010,0.000,0.000,0.000,0.000,1,2,0,3,7,255,1224,250,527,1224
stim,1774,1774,0,771763.829,0.988,0.054,-0.067,-0.128,2335,0,175,2463,407,907,31,606,1,0.000,3,0,0.166,0.022,-0.140,-0.040,0.080,-0.146,-0.087,0.990,0.018,0.012,0.022,0.000,0.000,0.000,0.000,1,2,0,3,7,255,1224,250,532,1224
stim,1774,1774,0,771768.829,0.988,0.054,-0.067,-0.128,2347,0,175,2475,404,910,25,615,1,0.000,3,0,0.343,0.013,-0.340,-0.040,0.020,-0.146,-0.089,0.986,0.004,0.012,0.022,0.000,0.000,0.000,0.000,1,2,0,3,7,255,1224,250,537,1224
stim,1774,1774,0,771773.829,0.988,0.054,-0.067,-0.128,2336,0,173,2454,404,908,29,609,1,0.000,3,0,0.130,0.016,-0.080,-0.100,0.020,-0.147,-0.090,0.985,0.004,-0.016,-0.018,0.000,0.000,0.000,0.000,1,2,0,3,7,255,1224,250,542,1224
stim,1774,1774,0,771778.829,0.988,0.054,-0.067,-0.128,2335,0,180,2461,405,907,29,605,1,0.000,3,0,0.286,0.016,0.280,-0.040,-0.040,-0.147,-0.088,0.986,0.000,-0.016,-0.018,0.000,0.000,0.000,0.000,1,2,0,3,7,255,1224,250,547,1224
stim,1790,1790,0,771783.829,0.988,0.054,-0.067,-0.128,2333,0,175,2456,394,908,25,615,1,0.000,3,0,0.325,0.006,0.280,-0.040,-0.160,-0.146,-0.087,0.989,0.000,-0.006,-0.012,0.000,0.000,0.000,0.000,1,2,0,3,7,255,1224,250,552,1224
stim,1790,1790,0,771788.829,0.988,0.054,-0.067,-0.128,2341,0,171,2459,391,907,26,608,1,0.000,3,0,0.104,0.009,-0.020,0.020,-0.100,-0.145,-0.087,0.989,0.004,0.008,0.006,0.000,0.000,0.000,0.000,1,2,0,3,7,255,1224,250,557,1224
stim,1806,1806,0,771793.829,0.988,0.054,-0.067,-0.128,2340,0,177,2464,393,904,30,613,1,0.000,3,0,0.177,0.016,-0.140,-0.040,-0.100,-0.146,-0.089,0.987,0.014,0.008,0.006,0.000,0.000,0.000,0.000,1,2,0,3,7,255,1224,250,562,1224
stim,1806,1806,0,771798.829,0.988,0.054,-0.067,-0.128,2341,0,177,2459,384,908,31,606,1,0.000,3,0,0.120,0.015,-0.080,-0.040,0.080,-0.146,-0.089,0.986,0.014,-0.006,-0.006,0.000,0.000,0.000,0.000,1,2,0,3,7,255,1224,250,567,1224
stim,1806,1806,0,771803.829,0.988,0.054,-0.067,-0.128,2348,0,171,2459,384,903,33,608,1,0.000,3,0,0.170,0.010,0.160,-0.040,-0.040,-0.146,-0.088,0.986,0.008,-0.006,-0.014,0.000,0.000,0.000,0.000,1,2,0,3,7,255,1224,250,572,1224
stim,1806,1806,0,771808.829,0.988,0.054,-0.067,-0.128,2343,0,179,2464,380,915,30,605,1,0.000,3,0,0.190,0.007,0.100,0.020,-0.160,-0.146,-0.086,0.989,0.004,-0.006,-0.014,0.000,0.000,0.000,0.000,1,2,0,3,7,255,1224,250,577,1224
stim,1823,1823,0,771813.829,0.988,0.054,-0.067,-0.128,2341,0,176,2455,389,905,27,613,1,0.000,3,0,0.162,0.004,-0.020,0.020,-0.160,-0.146,-0.088,0.989,0.004,-0.002,0.008,0.000,0.000,0.000,0.000,1,2,0,3,7,255,1224,250,582,1224
stim,1823,1823,0,771818.829,0.988,0.054,-0.067,-0.128,2343,0,171,2464,391,904,29,603,1,0.000,3,0,0.092,0.004,-0.080,0.020,-0.040,-0.146,-0.088,0.988,0.004,0.002,0.008,0.000,0.000,0.000,0.000,1,2,0,3,7,255,1224,250,587,1224
stim,1838,1838,0,771823.829,0.988,0.054,-0.067,-0.128,2350,0,177,2452,383,913,31,609,1,0.000,3,0,0.143,0.003,-0.140,0.020,0.020,-0.147,-0.088,0.987,0.002,-0.002,0.004,0.000,0.000,0.000,0.000,1,2,0,3,7,255,1224,250,592,1224
stim,1838,1838,0,771828.829,0.988,0.054,-0.067,-0.128,2341,0,175,2471,393,911,31,611,1,0.000,3,0,0.060,0.002,-0.020,-0.040,-0.040,-0.147,-0.088,0.987,-0.002,0.000,-0.004,0.000,0.000,0.000,0.000,1,2,0,3,7,255,1224,250,597,1224
stim,1838,1838,0,771833.829,0.988,0.054,-0.067,-0.128,2341,0,173,2463,391,906,28,609,1,0.000,3,0,0.183,0.004,0.040,0.080,-0.160,-0.147,-0.088,0.987,-0.004,-0.002,-0.004,0.000,0.000,0.000,0.000,1,2,0,3,7,255,1224,250,602,1224
stim,1871,1871,0,771838.829,0.988,0.054,-0.067,-0.128,2336,0,170,2459,393,917,25,615,1,0.000,3,0,0.166,0.004,0.040,0.020,-0.160,-0.146,-0.088,0.987,-0.004,-0.002,-0.008,0.000,0.000,0.000,0.000,1,2,0,3,7,255,1224,250,607,1224
stim,1871,1871,0,771843.829,0.988,0.054,-0.067,-0.128,2328,0,174,2466,403,911,28,616,1,0.000,3,0,0.049,0.008,-0.020,0.020,-0.040,-0.146,-0.088,0.988,0.008,-0.002,-0.004,0.000,0.000,0.000,0.000,1,2,0,3,7,255,1224,250,612,1224
stim,1871,1871,0,771848.829,0.988,0.054,-0.067,-0.128,2345,0,175,2467,395,913,29,616,1,0.000,3,0,0.035,0.009,-0.020,0.020,0.020,-0.146,-0.089,0.988,0.008,-0.004,0.000,0.000,0.000,0.000,0.000,1,2,0,3,7,255,1224,250,617,1224
stim,1871,1871,0,771853.829,0.988,0.054,-0.067,-0.128,2342,0,175,2461,394,907,28,613,1,0.000,3,0,0.049,0.011,-0.020,-0.040,0.020,-0.146,-0.089,0.987,0.008,-0.008,0.000,0.000,0.000,0.000,0.000,1,2,0,3,7,255,1224,250,622,1224
stim,1871,1871,0,771858.829,0.988,0.054,-0.067,-0.128,2331,1,172,2478,403,907,25,612,1,0.000,3,0,0.110,0.009,0.100,0.020,-0.040,-0.146,-0.088,0.986,0.004,-0.008,-0.004,0.000,0.000,0.000,0.000,1,2,0,3,7,255,1224,250,627,1224
stim,1871,1871,0,771863.829,0.988,0.054,-0.067,-0.128,2328,0,172,2468,405,909,28,615,1,0.000,3,0,0.110,0.004,0.100,0.020,-0.040,-0.146,-0.087,0.988,0.002,-0.004,-0.004,0.000,0.000,0.000,0.000,1,2,0,3,7,255,1224,250,632,1224
stim,1871,1871,0,771868.829,0.988,0.054,-0.067,-0.128,2353,0,171,2469,395,913,23,612,1,0.000,3,0,0.049,0.004,0.040,0.020,0.020,-0.147,-0.089,0.988,0.000,-0.004,0.000,0.000,0.000,0.000,0.000,1,2,0,3,7,255,1224,250,637,1224
stim,1871,1871,0,771873.829,0.988,0.054,-0.067,-0.128,2327,0,171,2476,403,905,28,613,1,0.000,3,0,0.092,0.004,0.040,0.020,0.080,-0.146,-0.088,0.988,0.000,0.004,0.002,0.000,0.000,0.000,0.000,1,2,0,3,7,255,1224,250,642,1224
stim,1886,1886,0,771878.829,0.988,0.054,-0.067,-0.128,2335,0,173,2468,395,915,28,605,1,0.000,3,0,0.049,0.007,0.040,0.020,0.020,-0.146,-0.089,0.988,0.004,-0.006,0.004,0.000,0.000,0.000,0.000,1,2,0,3,7,255,1224,250,647,1224
stim,1886,1886,0,771883.829,0.988,0.054,-0.067,-0.128,2349,0,177,2459,397,904,29,607,1,0.000,3,0,0.110,0.007,0.100,0.020,-0.040,-0.146,-0.088,0.988,0.006,0.004,0.004,0.000,0.000,0.000,0.000,1,2,0,3,7,255,1224,250,652,1224
stim,1886,1886,0,771888.829,0.988,0.054,-0.067,-0.128,2333,0,172,2464,391,902,26,611,1,0.000,3,0,0.110,0.007,0.100,0.020,-0.040,-0.147,-0.089,0.988,0.004,-0.006,0.006,0.000,0.000,0.000,0.000,1,2,0,3,7,255,1224,250,657,1224
stim,1886,1886,0,771893.829,0.988,0.054,-0.067,-0.128,2351,0,169,2467,396,904,31,613,1,0.000,3,0,0.049,0.003,0.040,0.020,0.020,-0.146,-0.088,0.987,0.002,0.002,0.000,0.000,0.000,0.000,0.000,1,2,0,3,7,255,1224,250,662,1224
stim,1902,1902,0,771898.829,0.988,0.054,-0.067,-0.128,2346,0,179,2459,395,910,31,607,1,0.000,3,0,0.092,0.002,0.040,0.020,0.080,-0.146,-0.088,0.988,0.002,0.000,0.000,0.000,0.000,0.000,0.000,1,2,0,3,7,255,1224,250,667,1224
stim,1902,1902,0,771903.831,0.988,0.054,-0.067,-0.128,2343,0,177,2464,397,909,30,606,1,0.000,3,0,0.069,0.004,0.040,-0.040,-0.040,-0.146,-0.089,0.988,0.004,0.000,0.000,0.000,0.000,0.000,0.000,1,2,0,3,7,255,1224,250,672,1224
stim,1919,1919,0,771908.829,0.988,0.054,-0.067,-0.128,2329,0,173,2481,400,913,29,607,1,0.000,3,0,0.110,0.007,0.100,0.020,-0.040,-0.146,-0.089,0.987,0.004,-0.006,0.000,0.000,0.000,0.000,0.000,1,2,0,3,7,255,1224,250,677,1224
stim,1919,1919,0,771913.829,0.988,0.054,-0.067,-0.128,2335,1,175,2467,403,915,27,614,1,0.000,3,0,0.166,0.007,0.160,0.020,-0.040,-0.147,-0.089,0.987,0.004,-0.006,-0.002,0.000,0.000,0.000,0.000,1,2,0,3,7,255,1224,250,682,1224
stim,1919,1919,0,771918.829,0.988,0.054,-0.067,-0.128,2336,0,173,2459,399,909,28,606,1,0.000,3,0,0.110,0.006,0.100,0.020,-0.040,-0.146,-0.088,0.987,0.002,-0.006,-0.004,0.000,0.000,0.000,0.000,1,2,0,3,7,255,1224,250,687,1224
stim,1919,1919,0,771923.829,0.988,0.054,-0.067,-0.128,2343,1,172,2454,396,905,24,616,1,0.000,3,0,0.110,0.002,0.100,0.020,-0.040,-0.147,-0.087,0.988,0.000,-0.002,-0.002,0.000,0.000,0.000,0.000,1,2,0,3,7,255,1224,250,692,1224
stim,1966,1966,0,771928.829,0.988,0.054,-0.067,-0.128,2334,0,180,2469,391,906,25,610,1,0.000,3,0,0.049,0.004,-0.020,0.020,-0.040,-0.146,-0.088,0.988,0.002,0.004,0.000,0.000,0.000,0.000,0.000,1,2,0,3,7,255,1224,250,697,1224
stim,1966,1966,0,771933.829,0.988,0.054,-0.067,-0.128,2339,0,173,2469,393,913,25,616,1,0.000,3,0,0.104,0.004,0.100,0.020,0.020,-0.146,-0.089,0.988,0.002,0.004,0.000,0.000,0.000,0.000,0.000,1,2,0,3,7,255,1224,250,702,1224
stim,1966,1966,0,771938.829,0.988,0.054,-0.067,-0.128,2343,2,179,2469,389,906,29,613,1,0.000,3,0,0.104,0.015,0.100,0.020,0.020,-0.145,-0.088,0.988,0.014,0.004,0.002,0.000,0.000,0.000,0.000,1,2,0,3,7,255,1224,250,707,1224
stim,1966,1966,0,771943.829,0.988,0.054,-0.067,-0.128,2341,2,175,2471,390,909,29,609,1,0.000,3,0,0.110,0.015,0.100,0.020,-0.040,-0.146,-0.088,0.988,0.014,0.006,0.002,0.000,0.000,0.000,0.000,1,2,0,3,7,255,1224,250,712,1224
stim,1966,1966,0,771948.829,0.988,0.054,-0.067,-0.128,2339,1,175,2461,392,913,30,605,1,0.000,3,0,0.110,0.012,0.100,0.020,-0.040,-0.146,-0.089,0.988,0.010,0.006,0.000,0.000,0.000,0.000,0.000,1,2,0,3,7,255,1224,250,717,1224
stim,1966,1966,0,771953.829,0.988,0.054,-0.067,-0.128,2332,0,172,2469,391,909,26,611,1,0.000,3,0,0.110,0.008,0.100,0.020,-0.040,-0.147,-0.088,0.988,0.008,-0.002,0.000,0.000,0.000,0.000,0.000,1,2,0,3,7,255,1224,250,722,1224
stim,1982,1982,0,771958.829,0.988,0.054,-0.067,-0.128,2331,0,173,2481,394,917,26,611,1,0.000,3,0,0.110,0.003,0.100,0.020,-0.040,-0.146,-0.088,0.988,0.002,-0.002,0.002,0.000,0.000,0.000,0.000,1,2,0,3,7,255,1224,250,727,1224
stim,1982,1982,0,771963.829,0.988,0.054,-0.067,-0.128,2327,0,176,2473,391,895,24,613,1,0.000,3,0,0.060,0.000,0.040,0.020,-0.040,-0.146,-0.087,0.989,0.000,0.000,0.006,0.000,0.000,0.000,0.000,1,2,0,3,7,255,1224,250,732,1224
stim,1982,1982,0,771968.829,0.988,0.054,-0.067,-0.128,2347,0,170,2461,383,911,28,606,1,0.000,3,0,0.115,0.000,0.040,-0.040,-0.100,-0.147,-0.088,0.989,0.000,0.000,0.010,0.000,0.000,0.000,0.000,1,2,0,3,7,255,1224,250,737,1224
stim,1982,1982,0,771973.829,0.988,0.054,-0.067,-0.128,2347,0,173,2473,388,905,21,615,1,0.000,3,0,0.115,0.004,0.040,-0.040,-0.100,-0.146,-0.088,0.988,0.000,0.004,0.010,0.000,0.000,0.000,0.000,1,2,0,3,7,255,1224,250,742,1224
stim,1982,1982,0,771978.829,0.988,0.054,-0.067,-0.128,2336,0,175,2469,391,915,23,613,1,0.000,3,0,0.110,0.004,0.040,0.020,-0.100,-0.146,-0.088,0.988,0.000,0.004,0.004,0.000,0.000,0.000,0.000,1,2,0,3,7,255,1224,250,747,1224
stim,1982,1982,0,771983.829,0.988,0.054,-0.067,-0.128,2336,0,175,2456,382,909,29,616,1,0.000,3,0,0.060,0.004,0.040,0.020,-0.040,-0.146,-0.087,0.988,0.000,0.004,0.004,0.000,0.000,0.000,0.000,1,2,0,3,7,255,1224,250,752,1224
stim,1998,1998,0,771988.829,0.988,0.054,-0.067,-0.128,2339,0,180,2454,370,896,27,615,1,0.000,3,0,0.110,0.004,0.100,0.020,-0.040,-0.146,-0.088,0.988,0.000,0.004,0.004,0.000,0.000,0.000,0.000,1,2,0,3,7,255,1224,250,757,1224
stim,1998,1998,0,771993.829,0.988,0.054,-0.067,-0.128,2324,0,175,2413,383,912,30,612,1,0.000,3,0,0.060,0.006,-0.020,-0.040,-0.040,-0.146,-0.088,0.988,0.000,0.006,0.004,0.000,0.000,0.000,0.000,1,2,0,3,7,255,1224,250,762,1224
stim,1998,1998,0,771998.829,0.988,0.054,-0.067,-0.128,2333,0,175,2469,375,915,25,615,1,0.000,3,0,0.060,0.004,-0.020,-0.040,-0.040,-0.147,-0.089,0.988,0.000,0.004,0.002,0.000,0.000,0.000,0.000,1,2,0,3,7,255,1224,250,767,1224
stim,1998,1998,0,772003.829,0.988,0.054,-0.067,-0.128,2333,0,171,2473,381,909,27,607,1,0.000,3,0,0.049,0.004,-0.020,-0.040,0.020,-0.147,-0.088,0.987,-0.004,0.002,0.002,0.000,0.000,0.000,0.000,1,2,0,3,7,255,1224,250,772,1224
stim,2016,2016,0,772008.829,0.988,0.054,-0.067,-0.128,2333,0,174,2467,393,911,23,611,1,0.000,3,0,0.060,0.004,0.040,-0.040,0.020,-0.147,-0.088,0.989,-0.004,0.002,0.002,0.000,0.000,0.000,0.000,1,2,0,3,7,255,1224,250,777,1224
stim,2016,2016,0,772013.829,0.988,0.054,-0.067,-0.128,2331,0,171,2457,383,909,30,608,1,0.000,3,0,0.060,0.004,-0.020,-0.040,-0.040,-0.147,-0.089,0.987,-0.004,0.002,-0.002,0.000,0.000,0.000,0.000,1,2,0,3,7,255,1224,250,782,1224
stim,2034,2034,0,772018.829,0.988,0.054,-0.067,-0.128,2341,0,173,2458,377,908,29,606,1,0.000,3,0,0.060,0.004,-0.020,-0.040,-0.040,-0.146,-0.088,0.988,-0.002,0.004,0.000,0.000,0.000,0.000,0.000,1,2,0,3,7,255,1224,250,787,1224
stim,2034,2034,0,772023.829,0.988,0.054,-0.067,-0.128,2343,1,174,2469,375,909,25,611,1,0.000,3,0,0.115,0.003,0.040,-0.040,-0.100,-0.147,-0.088,0.987,-0.002,0.002,-0.002,0.000,0.000,0.000,0.000,1,2,0,3,7,255,1224,250,792,1224
stim,2034,2034,0,772028.829,0.988,0.054,-0.067,-0.128,2332,0,179,2461,366,907,27,613,1,0.000,3,0,0.060,0.007,0.040,-0.040,0.020,-0.146,-0.087,0.988,0.004,0.006,-0.002,0.000,0.000,0.000,0.000,1,2,0,3,7,255,1224,250,797,1224
stim,2035,2035,0,772033.829,0.988,0.054,-0.067,-0.128,2343,0,175,2457,375,915,27,613,1,0.000,3,0,0.115,0.003,0.100,-0.040,-0.040,-0.147,-0.088,0.988,-0.002,0.002,-0.002,0.000,0.000,0.000,0.000,1,2,0,3,7,255,1224,250,802,1224
stim,2035,2035,0,772038.829,0.988,0.054,-0.067,-0.128,2348,0,171,2475,381,915,28,608,1,0.000,3,0,0.069,0.004,0.040,-0.040,-0.040,-0.147,-0.088,0.989,-0.002,0.004,0.006,0.000,0.000,0.000,0.000,1,2,0,3,7,255,1224,250,807,1224
stim,2068,2068,0,772043.830,0.988,0.054,-0.067,-0.128,2345,0,174,2465,379,906,37,615,1,0.000,3,0,0.060,0.002,-0.020,-0.040,-0.040,-0.146,-0.088,0.988,-0.002,0.000,0.006,0.000,0.000,0.000,0.000,1,2,0,3,7,255,1224,250,812,1224
stim,2068,2068,0,772048.829,0.988,0.054,-0.067,-0.128,2340,0,170,2465,381,910,30,608,1,0.000,3,0,0.069,0.004,0.040,-0.040,-0.040,-0.146,-0.086,0.988,0.000,0.004,0.004,0.000,0.000,0.000,0.000,1,2,0,3,7,255,1224,250,817,1224
stim,2068,2068,0,772053.829,0.988,0.054,-0.067,-0.128,2345,0,181,2463,379,904,25,615,1,0.000,3,0,0.104,0.002,-0.020,0.020,-0.100,-0.146,-0.089,0.988,0.002,0.000,0.000,0.000,0.000,0.000,0.000,1,2,0,3,7,255,1224,250,822,1224
stim,2068,2068,0,772058.829,0.988,0.054,-0.067,-0.128,2343,0,172,2475,377,907,25,611,1,0.000,3,0,0.069,0.004,0.040,-0.040,-0.040,-0.146,-0.089,0.988,0.002,-0.004,0.000,0.000,0.000,0.000,0.000,1,2,0,3,7,255,1224,250,827,1224
stim,2068,2068,0,772063.829,0.988,0.054,-0.067,-0.128,2325,0,177,2467,379,906,30,615,1,0.000,3,0,0.069,0.007,0.040,-0.040,-0.040,-0.146,-0.088,0.987,0.006,-0.004,0.000,0.000,0.000,0.000,0.000,1,2,0,3,7,255,1224,250,832,1224
stim,2068,2068,0,772068.829,0.988,0.054,-0.067,-0.128,2328,0,175,2471,379,909,25,611,1,0.000,3,0,0.069,0.006,0.040,-0.040,-0.040,-0.146,-0.088,0.987,0.006,0.000,-0.004,0.000,0.000,0.000,0.000,1,2,0,3,7,255,1224,250,837,1224
stim,2080,2080,0,772073.829,0.988,0.054,-0.067,-0.128,2341,0,183,2483,363,907,26,606,1,0.000,3,0,0.069,0.002,0.040,-0.040,-0.040,-0.146,-0.089,0.987,0.002,0.000,-0.004,0.000,0.000,0.000,0.000,1,2,0,3,7,255,1224,250,842,1224
stim,2080,2080,0,772078.829,0.988,0.054,-0.067,-0.128,2340,0,171,2463,399,904,28,608,1,0.000,3,0,0.049,0.000,-0.020,0.020,-0.040,-0.146,-0.087,0.989,0.000,0.000,-0.004,0.000,0.000,0.000,0.000,1,2,0,3,7,255,1224,250,847,1224
stim,2080,2080,0,772083.829,0.988,0.054,-0.067,-0.128,2349,0,180,2453,415,915,27,615,1,0.000,3,0,0.060,0.004,0.040,-0.040,0.020,-0.146,-0.089,0.988,0.002,-0.004,0.006,0.000,0.000,0.000,0.000,1,2,0,3,7,255,1224,250,852,1224
stim,2080,2080,0,772088.829,0.988,0.054,-0.067,-0.128,2341,0,172,2467,419,907,25,613,1,0.000,3,0,0.069,0.003,0.040,-0.040,-0.040,-0.146,-0.088,0.989,0.002,0.002,0.008,0.000,0.000,0.000,0.000,1,2,0,3,7,255,1224,250,857,1224
stim,2095,2095,0,772093.829,0.988,0.054,-0.067,-0.128,2330,1,176,2455,421,906,25,615,1,0.000,3,0,0.060,0.002,0.040,-0.040,0.020,-0.147,-0.088,0.988,0.002,0.000,0.006,0.000,0.000,0.000,0.000,1,2,0,3,7,255,1224,250,862,1224
stim,2095,2095,0,772098.829,0.988,0.054,-0.067,-0.128,2335,0,177,2453,427,909,27,613,1,0.000,3,0,0.049,0.004,-0.020,-0.040,0.020,-0.147,-0.087,0.987,-0.004,0.002,0.000,0.000,0.000,0.000,0.000,1,2,0,3,7,255,1224,250,867,1224
stim,2112,2112,0,772103.830,0.988,0.054,-0.067,-0.128,2341,0,179,2461,420,915,30,613,1,0.000,3,0,0.098,0.004,0.040,-0.040,0.080,-0.146,-0.089,0.989,-0.004,0.000,0.000,0.000,0.000,0.000,0.000,1,2,0,3,7,255,1224,250,872,1224
stim,2112,2112,0,772108.829,0.988,0.054,-0.067,-0.128,2339,0,172,2466,424,903,28,617,1,0.000,3,0,0.098,0.000,0.040,-0.040,0.080,-0.146,-0.088,0.987,0.000,0.000,-0.004,0.000,0.000,0.000,0.000,1,2,0,3,7,255,1224,250,877,1224
stim,2112,2112,0,772113.829,0.988,0.054,-0.067,-0.128,2345,0,172,2463,431,915,28,613,1,0.000,3,0,0.110,0.002,0.100,-0.040,0.020,-0.147,-0.089,0.987,0.000,-0.002,-0.004,0.000,0.000,0.000,0.000,1,2,0,3,7,255,1224,250,882,1224
stim,2112,2112,0,772118.829,0.988,0.054,-0.067,-0.128,2341,0,172,2461,425,907,30,607,1,0.000,3,0,0.110,0.006,0.100,-0.040,0.020,-0.146,-0.090,0.987,0.000,-0.006,-0.004,0.000,0.000,0.000,0.000,1,2,0,3,7,255,1224,250,887,1224
stim,2127,2127,0,772123.829,0.988,0.054,-0.067,-0.128,2336,0,179,2455,423,907,30,615,1,0.000,3,0,0.166,0.007,0.160,-0.040,0.020,-0.145,-0.089,0.987,0.004,-0.006,-0.006,0.000,0.000,0.000,0.000,1,2,0,3,7,255,1224,250,892,1224
stim,2127,2127,0,772128.829,0.988,0.054,-0.067,-0.128,2340,2,170,2463,427,909,30,608,1,0.000,3,0,0.143,0.006,0.100,-0.100,0.020,-0.146,-0.089,0.987,0.006,-0.002,-0.006,0.000,0.000,0.000,0.000,1,2,0,3,7,255,1224,250,897,1224
stim,2159,2159,0,772133.829,0.988,0.054,-0.067,-0.128,2329,1,179,2477,423,915,27,605,1,0.000,3,0,0.193,0.006,0.160,-0.100,-0.040,-0.146,-0.089,0.987,0.006,-0.002,-0.004,0.000,0.000,0.000,0.000,1,2,0,3,7,255,1224,250,902,1224
stim,2159,2159,0,772138.829,0.988,0.054,-0.067,-0.128,2343,0,171,2475,429,907,29,613,1,0.000,3,0,0.143,0.003,0.100,-0.100,0.020,-0.147,-0.088,0.988,0.002,-0.002,-0.004,0.000,0.000,0.000,0.000,1,2,0,3,7,255,1224,250,907,1224
stim,2159,2159,0,772143.829,0.988,0.054,-0.067,-0.128,2335,0,172,2471,424,905,35,608,1,0.000,3,0,0.104,0.002,0.100,0.020,0.020,-0.146,-0.087,0.987,0.002,0.000,-0.004,0.000,0.000,0.000,0.000,1,2,0,3,7,255,1224,250,912,1224
stim,2159,2159,0,772148.829,0.988,0.054,-0.067,-0.128,2341,0,171,2464,425,907,26,608,1,0.000,3,0,0.110,0.003,0.100,-0.040,0.020,-0.146,-0.088,0.989,0.002,0.002,0.002,0.000,0.000,0.000,0.000,1,2,0,3,7,255,1224,250,917,1224
stim,2159,2159,0,772153.830,0.988,0.054,-0.067,-0.128,2342,2,172,2467,416,909,28,608,1,0.000,3,0,0.110,0.003,0.100,-0.040,0.020,-0.146,-0.089,0.988,0.002,0.002,0.006,0.000,0.000,0.000,0.000,1,2,0,3,7,255,1224,250,922,1224
stim,2159,2159,0,772158.829,0.988,0.054,-0.067,-0.128,2329,0,172,2465,427,909,28,614,1,0.000,3,0,0.134,0.006,0.100,-0.040,0.080,-0.147,-0.089,0.989,0.002,-0.006,0.010,0.000,0.000,0.000,0.000,1,2,0,3,7,255,1224,250,927,1224
stim,2174,2174,0,772163.829,0.988,0.054,-0.067,-0.128,2343,0,179,2459,427,910,30,610,1,0.000,3,0,0.110,0.006,0.100,-0.040,0.020,-0.146,-0.088,0.987,0.000,-0.006,0.006,0.000,0.000,0.000,0.000,1,2,0,3,7,255,1224,250,932,1224
stim,2174,2174,0,772168.829,0.988,0.054,-0.067,-0.128,2349,0,179,2455,423,913,31,609,1,0.000,3,0,0.110,0.002,0.100,-0.040,0.020,-0.146,-0.087,0.988,0.000,0.002,0.002,0.000,0.000,0.000,0.000,1,2,0,3,7,255,1224,250,937,1224
stim,2174,2174,0,772173.829,0.988,0.054,-0.067,-0.128,2340,0,171,2469,426,903,25,615,1,0.000,3,0,0.162,0.002,0.160,0.020,0.020,-0.147,-0.088,0.988,0.000,0.002,0.002,0.000,0.000,0.000,0.000,1,2,0,3,7,255,1224,250,942,1224
stim,2174,2174,0,772178.829,0.988,0.054,-0.067,-0.128,2342,0,175,2475,438,907,30,615,1,0.000,3,0,0.110,0.006,0.100,-0.040,0.020,-0.148,-0.088,0.988,-0.004,0.004,0.006,0.000,0.000,0.000,0.000,1,2,0,3,7,255,1224,250,947,1224
stim,2190,2190,0,772183.829,0.988,0.054,-0.067,-0.128,2339,0,179,2457,426,909,31,607,1,0.000,3,0,0.049,0.004,0.040,0.020,0.020,-0.147,-0.088,0.989,-0.004,0.002,0.006,0.000,0.000,0.000,0.000,1,2,0,3,7,255,1224,250,952,1224
stim,2190,2190,0,772188.829,0.988,0.054,-0.067,-0.128,2325,0,176,2447,429,923,28,614,1,0.000,3,0,0.060,0.004,0.040,-0.040,0.020,-0.147,-0.088,0.988,-0.004,0.002,0.006,0.000,0.000,0.000,0.000,1,2,0,3,7,255,1224,250,957,1224
stim,2207,2207,0,772193.829,0.988,0.054,-0.067,-0.128,2346,0,170,2469,429,909,33,613,1,0.000,3,0,0.049,0.004,0.040,0.020,0.020,-0.146,-0.087,0.989,-0.004,0.002,0.008,0.000,0.000,0.000,0.000,1,2,0,3,7,255,1224,250,962,1224
stim,2207,2207,0,772198.829,0.988,0.054,-0.067,-0.128,2330,1,181,2471,429,915,30,615,1,0.000,3,0,0.104,0.008,0.100,0.020,0.020,-0.146,-0.088,0.988,-0.002,0.008,0.006,0.000,0.000,0.000,0.000,1,2,0,3,7,255,1224,250,967,1224
stim,2222,2222,0,772203.829,0.988,0.054,-0.067,-0.128,2337,0,172,2460,424,906,26,616,1,0.000,3,0,0.060,0.008,0.040,-0.040,0.020,-0.146,-0.089,0.988,0.000,0.008,0.004,0.000,0.000,0.000,0.000,1,2,0,3,7,255,1224,250,972,1224
stim,2222,2222,0,772208.829,0.988,0.054,-0.067,-0.128,2343,0,173,2471,440,913,30,612,1,0.000,3,0,0.049,0.002,0.040,0.020,0.020,-0.146,-0.089,0.988,0.002,0.000,0.000,0.000,0.000,0.000,0.000,1,2,0,3,7,255,1224,250,977,1224
stim,2222,2222,0,772213.829,0.988,0.054,-0.067,-0.128,2333,0,179,2471,432,907,31,605,1,0.000,3,0,0.069,0.002,0.040,-0.040,-0.040,-0.147,-0.088,0.988,0.002,0.000,0.000,0.000,0.000,0.000,0.000,1,2,0,3,7,255,1224,250,982,1224
stim,2222,2222,0,772218.829,0.988,0.054,-0.067,-0.128,2339,1,172,2456,433,914,33,607,1,0.000,3,0,0.115,0.006,0.040,-0.040,-0.100,-0.145,-0.087,0.989,0.002,0.006,0.000,0.000,0.000,0.000,0.000,1,2,0,3,7,255,1224,250,987,1224
stim,2222,2222,0,772223.829,0.988,0.054,-0.067,-0.128,2339,1,176,2481,435,907,27,615,1,0.000,3,0,0.049,0.006,0.040,0.020,0.020,-0.146,-0.089,0.988,0.002,0.006,0.004,0.000,0.000,0.000,0.000,1,2,0,3,7,255,1224,250,992,1224
stim,2254,2254,0,772228.829,0.988,0.054,-0.067,-0.128,2328,0,176,2471,435,910,29,615,1,0.000,3,0,0.060,0.003,0.040,0.020,-0.040,-0.146,-0.089,0.987,0.002,-0.002,0.004,0.000,0.000,0.000,0.000,1,2,0,3,7,255,1224,250,997,1224
stim,2254,2254,0,772233.829,0.988,0.054,-0.067,-0.128,2329,0,175,2470,439,903,26,611,1,0.000,3,0,0.049,0.003,0.040,0.020,0.020,-0.146,-0.088,0.988,0.002,-0.002,0.004,0.000,0.000,0.000,0.000,1,2,0,3,7,255,1224,250,1002,1224
stim,2254,2254,0,772238.829,0.988,0.054,-0.067,-0.128,2341,0,178,2459,456,907,30,611,1,0.000,3,0,0.060,0.009,0.040,0.020,-0.040,-0.146,-0.087,0.987,0.004,0.008,-0.004,0.000,0.000,0.000,0.000,1,2,0,3,7,255,1224,250,1007,1224
stim,2254,2254,0,772243.829,0.988,0.054,-0.067,-0.128,2333,0,179,2468,446,911,27,613,1,0.000,3,0,0.049,0.009,-0.020,-0.040,0.020,-0.146,-0.088,0.987,0.004,0.008,-0.006,0.000,0.000,0.000,0.000,1,2,0,3,7,255,1224,250,1012,1224
stim,2254,2254,0,772248.830,0.988,0.054,-0.067,-0.128,2349,0,177,2460,453,909,25,609,1,0.000,3,0,0.049,0.008,0.040,0.020,0.020,-0.146,-0.088,0.989,0.002,0.008,-0.006,0.000,0.000,0.000,0.000,1,2,0,3,7,255,1224,250,1017,1224
stim,2254,2254,0,772253.829,0.988,0.054,-0.067,-0.128,2335,2,171,2468,448,913,33,612,1,0.000,3,0,0.060,0.008,0.040,0.020,-0.040,-0.146,-0.087,0.987,0.000,0.008,-0.006,0.000,0.000,0.000,0.000,1,2,0,3,7,255,1224,250,1022,1224
stim,2286,2286,0,772258.829,0.988,0.054,-0.067,-0.128,2335,3,179,2458,444,907,29,616,1,0.000,3,0,0.035,0.009,-0.020,0.020,0.020,-0.147,-0.088,0.988,-0.004,0.008,0.000,0.000,0.000,0.000,0.000,1,2,0,3,7,255,1224,250,1027,1224
stim,2286,2286,0,772263.829,0.988,0.054,-0.067,-0.128,2347,0,171,2466,447,907,31,612,1,0.000,3,0,0.069,0.006,0.040,-0.040,-0.040,-0.146,-0.089,0.987,-0.004,0.004,-0.006,0.000,0.000,0.000,0.000,1,2,0,3,7,255,1224,250,1032,1224
stim,2286,2286,0,772268.829,0.988,0.054,-0.067,-0.128,2333,0,181,2471,443,907,27,615,1,0.000,3,0,0.069,0.006,0.040,-0.040,-0.040,-0.146,-0.089,0.989,0.004,-0.004,0.000,0.000,0.000,0.000,0.000,1,2,0,3,7,255,1224,250,1037,1224
stim,2286,2286,0,772273.829,0.988,0.054,-0.067,-0.128,2343,1,179,2477,452,907,27,615,1,0.000,3,0,0.110,0.006,0.100,0.020,-0.040,-0.146,-0.088,0.987,0.004,-0.004,-0.004,0.000,0.000,0.000,0.000,1,2,0,3,7,255,1224,250,1042,1224
stim,2286,2286,0,772278.829,0.988,0.054,-0.067,-0.128,2344,0,180,2459,453,915,29,605,1,0.000,3,0,0.069,0.003,0.040,-0.040,-0.040,-0.146,-0.088,0.987,0.002,0.002,-0.004,0.000,0.000,0.000,0.000,1,2,0,3,7,255,1224,250,1047,1224
stim,2286,2286,0,772283.829,0.988,0.054,-0.067,-0.128,2334,0,172,2463,453,902,31,611,1,0.000,3,0,0.069,0.003,0.040,-0.040,-0.040,-0.146,-0.088,0.987,0.002,0.002,-0.006,0.000,0.000,0.000,0.000,1,2,0,3,7,255,1224,250,1052,1224
stim,2302,2302,0,772288.829,0.988,0.054,-0.067,-0.128,2342,0,179,2468,455,908,27,616,1,0.000,3,0,0.060,0.008,0.040,0.020,-0.040,-0.146,-0.087,0.987,0.002,0.008,-0.006,0.000,0.000,0.000,0.000,1,2,0,3,7,255,1224,250,1057,1224
stim,2302,2302,0,772293.829,0.988,0.054,-0.067,-0.128,2335,0,172,2471,441,903,26,607,1,0.000,3,0,0.060,0.004,-0.020,-0.040,-0.040,-0.146,-0.088,0.989,0.000,0.004,-0.006,0.000,0.000,0.000,0.000,1,2,0,3,7,255,1224,250,1062,1224
stim,2302,2302,0,772298.829,0.988,0.054,-0.067,-0.128,2333,0,175,2463,454,904,27,613,1,0.000,3,0,0.060,0.004,-0.020,-0.040,-0.040,-0.146,-0.089,0.988,0.000,0.004,0.004,0.000,0.000,0.000,0.000,1,2,0,3,7,255,1224,250,1067,1224
stim,2302,2302,0,772303.829,0.988,0.054,-0.067,-0.128,2341,0,180,2460,442,907,27,605,1,0.000,3,0,0.060,0.006,-0.020,-0.040,-0.040,-0.146,-0.089,0.988,0.006,0.000,0.004,0.000,0.000,0.000,0.000,1,2,0,3,7,255,1224,250,1072,1224
stim,2320,2320,0,772308.830,0.988,0.054,-0.067,-0.128,2359,0,171,2451,444,901,27,605,1,0.000,3,0,0.060,0.006,0.040,-0.040,0.020,-0.148,-0.089,0.987,0.006,0.000,0.004,0.000,0.000,0.000,0.000,1,2,0,3,7,255,1224,250,1077,1224
stim,2320,2320,0,772313.829,0.988,0.054,-0.067,-0.128,2336,0,174,2475,451,903,27,611,1,0.000,3,0,0.069,0.002,0.040,-0.040,-0.040,-0.146,-0.089,0.988,0.000,-0.002,0.000,0.000,0.000,0.000,0.000,1,2,0,3,7,255,1224,250,1082,1224
stim,2335,2335,0,772318.829,0.988,0.054,-0.067,-0.128,2331,0,179,2476,443,904,27,612,1,0.000,3,0,0.069,0.002,0.040,-0.040,-0.040,-0.146,-0.088,0.988,0.000,-0.002,0.000,0.000,0.000,0.000,0.000,1,2,0,3,7,255,1224,250,1087,1224
stim,2335,2335,0,772323.829,0.988,0.054,-0.067,-0.128,2333,0,172,2463,446,906,29,613,1,0.000,3,0,0.060,0.004,0.040,0.020,-0.040,-0.146,-0.088,0.987,0.000,0.004,0.000,0.000,0.000,0.000,0.000,1,2,0,3,7,255,1224,250,1092,1224
stim,2335,2335,0,772328.829,0.988,0.054,-0.067,-0.128,2331,0,176,2469,445,909,26,615,1,0.000,3,0,0.147,0.006,0.100,-0.100,-0.040,-0.146,-0.088,0.989,0.000,0.006,0.000,0.000,0.000,0.000,0.000,1,2,0,3,7,255,1224,250,1097,1224
stim,2335,2335,1,772333.829,0.988,0.054,-0.067,-0.128,2336,0,174,2457,443,907,24,612,1,0.000,3,0,0.049,0.006,-0.020,-0.040,0.020,-0.146,-0.088,0.988,0.000,0.006,0.004,0.000,0.000,0.000,0.000,1,2,1,3,7,255,1224,250,1102,1224
stim,2335,2335,1,772338.829,0.988,0.054,-0.067,-0.128,2327,0,171,2453,441,904,25,604,1,0.000,3,0,0.069,0.006,0.040,-0.040,-0.040,-0.146,-0.088,0.988,0.002,0.006,0.004,0.000,0.000,0.000,0.000,1,2,1,3,7,255,1224,250,1107,1224
stim,2398,2398,1,772343.829,0.988,0.054,-0.067,-0.128,2324,0,173,2460,439,907,26,607,1,0.000,3,0,0.069,0.004,0.040,-0.040,-0.040,-0.146,-0.088,0.987,0.000,0.004,-0.002,0.000,0.000,0.000,0.000,1,2,1,3,7,255,1224,250,1112,1224
stim,2398,2398,1,772348.829,0.988,0.054,-0.067,-0.128,2331,0,171,2469,440,906,26,608,1,0.000,3,0,0.115,0.006,0.100,-0.040,-0.040,-0.146,-0.088,0.986,-0.002,0.006,-0.010,0.000,0.000,0.000,0.000,1,2,1,3,7,255,1224,250,1117,1224
stim,2398,2398,1,772353.830,0.988,0.054,-0.067,-0.128,2329,0,176,2462,438,896,24,607,1,0.000,3,0,0.115,0.006,0.040,-0.100,-0.040,-0.146,-0.088,0.988,-0.002,0.006,-0.010,0.000,0.000,0.000,0.000,1,2,1,3,7,255,1224,250,1122,1224
stim,2398,2398,1,772358.829,0.988,0.054,-0.067,-0.128,2329,0,171,2467,421,909,29,613,1,0.000,3,0,0.104,0.006,0.100,0.020,0.020,-0.146,-0.089,0.988,0.000,0.006,-0.002,0.000,0.000,0.000,0.000,1,2,1,3,7,255,1224,250,1127,1224
stim,2398,2398,1,772363.829,0.988,0.054,-0.067,-0.128,2335,0,175,2457,413,909,26,611,1,0.000,3,0,0.069,0.002,0.040,-0.040,-0.040,-0.147,-0.089,0.988,0.000,-0.002,0.000,0.000,0.000,0.000,0.000,1,2,1,3,7,255,1224,250,1132,1224
stim,2398,2398,1,772368.829,0.988,0.054,-0.067,-0.128,2345,0,173,2472,412,906,26,613,1,0.000,3,0,0.190,0.002,0.100,0.020,-0.160,-0.146,-0.088,0.988,0.000,-0.002,0.002,0.000,0.000,0.000,0.000,1,2,1,3,7,255,1224,250,1137,1224
stim,2398,2398,1,772373.829,0.988,0.054,-0.067,-0.128,2338,0,173,2469,423,904,27,608,1,0.000,3,0,0.384,0.004,0.160,0.080,-0.340,-0.145,-0.086,0.989,0.000,0.004,0.004,0.000,0.000,0.000,0.000,1,2,1,3,7,255,1224,250,1142,1224
stim,2398,2398,1,772378.829,0.988,0.054,-0.067,-0.128,2325,0,171,2452,435,903,27,605,1,0.000,3,0,0.316,0.025,0.280,-0.040,0.140,-0.143,-0.087,0.989,0.012,0.022,0.004,0.000,0.000,0.000,0.000,1,2,1,3,7,255,1224,250,1147,1224
stim,2398,2398,1,772383.829,0.988,0.054,-0.067,-0.128,2345,0,173,2459,431,906,26,613,1,0.000,3,0,0.994,0.025,-0.280,-0.160,0.940,-0.149,-0.094,0.990,0.012,0.022,0.004,0.000,0.000,0.000,0.000,1,2,1,3,7,255,1224,250,1152,1224
stim,2398,2398,1,772388.829,0.988,0.055,-0.067,-0.128,2341,0,179,2459,437,905,23,605,1,0.000,3,0,0.663,0.033,-0.400,0.260,-0.460,-0.151,-0.091,0.986,-0.006,-0.032,0.002,0.000,0.000,0.000,0.000,1,2,1,3,7,255,1224,250,1157,1224
stim,2398,2398,1,772393.829,0.988,0.054,-0.067,-0.128,2331,0,174,2467,431,907,28,606,1,0.000,3,0,1.094,0.053,0.700,-0.040,-0.840,-0.150,-0.074,0.981,-0.042,-0.032,-0.006,0.000,0.000,0.000,0.000,1,2,1,3,7,255,1224,250,1162,1224
stim,2398,2398,1,772398.829,0.988,0.054,-0.067,-0.128,2325,0,171,2451,435,903,26,605,1,0.000,3,0,0.498,0.047,0.400,-0.220,0.200,-0.130,-0.096,0.999,-0.042,-0.020,-0.006,0.000,0.000,0.000,0.000,1,2,1,3,7,255,1224,250,1167,1224
stim,2414,2414,1,772403.829,0.988,0.054,-0.067,-0.128,2329,0,177,2467,384,896,25,608,1,0.000,3,0,0.885,0.056,-0.400,0.680,-0.400,-0.155,-0.102,0.987,-0.052,-0.020,0.014,0.000,0.000,0.000,0.000,1,2,1,3,7,255,1224,250,1172,1224
stim,2414,2414,1,772408.829,0.988,0.054,-0.067,-0.128,2335,0,179,2471,397,906,27,607,1,0.000,3,0,2.812,0.038,-0.520,-1.260,2.460,-0.136,-0.064,0.984,0.032,-0.020,0.014,0.000,0.000,0.000,0.000,1,2,1,3,7,255,1224,250,1177,1224
stim,2414,2414,1,772413.829,0.988,0.054,-0.067,-0.128,2335,0,177,2473,382,909,31,613,1,0.000,3,0,3.391,0.153,0.760,2.040,-2.600,-0.172,-0.113,0.984,-0.052,-0.144,0.014,0.000,0.000,0.000,0.000,1,2,1,3,7,255,1224,250,1182,1224
stim,2414,2414,1,772418.829,0.988,0.054,-0.067,-0.128,2341,1,176,2461,409,909,31,615,1,0.000,3,0,3.080,0.254,-0.200,-2.660,1.540,-0.112,-0.059,0.996,0.032,0.252,0.004,0.000,0.000,0.000,0.000,1,2,1,3,7,255,1224,250,1187,1224
stim,2430,2430,1,772423.829,0.988,0.054,-0.067,-0.128,2341,1,175,2463,349,907,31,612,1,0.000,3,0,3.701,0.346,0.640,3.500,-1.020,-0.187,-0.125,0.968,-0.180,-0.296,0.004,0.000,0.000,0.000,0.000,1,2,1,3,7,255,1224,250,1192,1224
stim,2430,2430,1,772428.829,0.988,0.054,-0.067,-0.128,2332,0,175,2461,415,908,31,611,1,0.000,3,0,3.998,0.451,-0.640,-3.760,-1.200,-0.100,-0.063,1.032,0.252,0.374,0.004,0.000,0.000,0.000,0.000,1,2,1,3,7,255,1224,250,1197,1224
stim,2463,2463,1,772433.829,0.988,0.054,-0.067,-0.128,2332,0,173,2461,439,907,26,610,1,0.000,3,0,5.550,0.298,0.640,2.640,4.840,-0.167,-0.074,0.925,-0.298,0.010,-0.104,0.000,0.000,0.000,0.000,1,2,1,3,7,255,1224,250,1202,1224
stim,2463,2463,1,772438.829,0.988,0.054,-0.067,-0.128,2335,1,172,2459,313,911,27,607,1,0.000,3,0,4.146,0.063,-0.460,0.020,-4.120,-0.175,-0.140,1.051,-0.062,0.010,0.336,0.000,0.000,0.000,0.000,1,2,1,3,7,255,1224,250,1207,1224
stim,2463,2463,1,772443.830,0.988,0.054,-0.067,-0.128,2343,0,171,2467,479,905,27,609,1,0.000,3,0,3.120,0.063,-0.080,-3.100,-0.340,-0.112,-0.048,0.951,-0.062,0.010,-0.444,0.000,0.000,0.000,0.000,1,2,1,3,7,255,1224,250,1212,1224
stim,2463,2463,1,772448.829,0.988,0.054,-0.067,-0.128,2339,0,173,2469,539,905,27,605,1,0.000,3,0,5.095,0.100,1.020,4.160,2.760,-0.144,-0.077,0.978,-0.018,0.098,-0.114,0.000,0.000,0.000,0.000,1,2,1,3,7,255,1224,250,1217,1224
stim,2463,2463,1,772453.829,0.988,0.054,-0.067,-0.128,2333,0,175,2467,522,906,27,615,1,0.000,3,0,2.601,0.100,-0.080,-2.480,-0.780,-0.166,-0.117,1.017,-0.018,0.098,-0.114,0.000,0.000,0.000,0.000,1,2,1,3,7,255,1224,250,1222,1224
stim,2463,2463,1,772458.829,0.988,0.054,-0.067,-0.128,2333,0,175,2458,493,915,23,608,1,0.000,3,0,0.818,0.020,-0.080,0.380,-0.720,-0.146,-0.088,0.977,-0.018,-0.008,-0.104,0.000,0.000,0.000,0.000,1,2,1,3,7,255,1224,250,3,1224
stim,2463,2463,1,772463.829,0.988,0.054,-0.067,-0.128,2335,0,171,2457,582,904,26,607,1,0.000,3,0,0.281,0.018,-0.140,0.140,0.200,-0.144,-0.083,0.987,-0.016,-0.008,-0.018,0.000,0.000,0.000,0.000,1,2,1,3,7,255,1224,250,8,1224
stim,2482,2482,1,772468.829,0.988,0.054,-0.067,-0.128,2329,0,168,2457,587,896,25,606,1,0.000,3,0,0.190,0.008,-0.020,-0.100,-0.160,-0.147,-0.090,0.987,-0.002,-0.008,-0.018,0.000,0.000,0.000,0.000,1,2,1,3,7,255,1224,250,13,1224
stim,2482,2482,1,772473.829,0.988,0.054,-0.067,-0.128,2335,0,168,2465,543,903,26,606,1,0.000,3,0,0.147,0.019,0.100,-0.100,-0.040,-0.142,-0.087,0.988,0.006,0.018,-0.006,0.000,0.000,0.000,0.000,1,2,1,3,7,255,1224,250,18,1224
stim,2482,2482,1,772478.829,0.988,0.054,-0.067,-0.128,2339,0,175,2469,623,909,31,613,1,0.000,3,0,0.353,0.018,0.280,0.080,0.200,-0.144,-0.083,0.985,0.004,0.018,-0.006,0.000,0.000,0.000,0.000,1,2,1,3,7,255,1224,250,23,1224
stim,2496,2496,1,772483.829,0.988,0.054,-0.067,-0.128,2343,0,169,2462,573,907,30,604,1,0.000,3,0,0.308,0.018,0.220,0.080,0.200,-0.146,-0.086,0.987,0.004,0.018,-0.006,0.000,0.000,0.000,0.000,1,2,1,3,7,255,1224,250,28,1224
stim,2496,2496,1,772488.829,0.988,0.054,-0.067,-0.128,2332,0,165,2457,575,905,29,604,1,0.000,3,0,0.110,0.016,0.100,-0.040,0.020,-0.149,-0.091,0.989,-0.002,0.016,-0.006,0.000,0.000,0.000,0.000,1,2,1,3,7,255,1224,250,33,1224
stim,2496,2496,1,772493.829,0.988,0.054,-0.067,-0.128,2331,0,169,2460,457,907,25,602,1,0.000,3,0,0.147,0.035,0.100,-0.040,-0.100,-0.148,-0.092,0.989,-0.008,-0.034,0.022,0.000,0.000,0.000,0.000,1,2,1,3,7,255,1224,250,38,1224
stim,2496,2496,1,772498.829,0.988,0.054,-0.067,-0.128,2328,0,171,2447,460,907,24,607,1,0.000,3,0,0.147,0.035,0.100,-0.040,-0.100,-0.148,-0.091,0.988,-0.008,-0.034,0.022,0.000,0.000,0.000,0.000,1,2,1,3,7,255,1224,250,43,1224
stim,2515,2515,1,772503.829,0.988,0.054,-0.067,-0.128,2345,0,167,2463,427,907,27,609,1,0.000,3,0,0.214,0.033,0.100,-0.100,-0.160,-0.147,-0.090,0.989,-0.008,-0.032,0.012,0.000,0.000,0.000,0.000,1,2,1,3,7,255,1224,250,48,1224
stim,2515,2515,1,772508.829,0.988,0.054,-0.067,-0.128,2320,0,170,2449,445,905,25,607,1,0.000,3,0,0.110,0.017,-0.020,-0.040,-0.100,-0.146,-0.088,0.989,-0.006,-0.016,0.012,0.000,0.000,0.000,0.000,1,2,1,3,7,255,1224,250,53,1224
stim,2515,2515,1,772513.829,0.988,0.054,-0.067,-0.128,2339,0,171,2461,427,911,22,605,1,0.000,3,0,0.130,0.011,-0.080,-0.100,0.020,-0.146,-0.089,0.987,0.008,-0.008,0.012,0.000,0.000,0.000,0.000,1,2,1,3,7,255,1224,250,58,1224
stim,2527,2527,1,772518.829,0.988,0.054,-0.067,-0.128,2340,1,175,2473,481,908,26,611,1,0.000,3,0,0.085,0.009,-0.020,0.020,0.080,-0.146,-0.088,0.986,0.008,0.004,-0.004,0.000,0.000,0.000,0.000,1,2,1,3,7,255,1224,250,63,1224
stim,2527,2527,1,772523.829,0.988,0.054,-0.067,-0.128,2331,0,168,2459,477,905,26,604,1,0.000,3,0,0.060,0.006,0.040,-0.040,0.020,-0.146,-0.086,0.988,0.004,0.004,-0.004,0.000,0.000,0.000,0.000,1,2,1,3,7,255,1224,250,68,1224
stim,2560,2560,1,772528.829,0.988,0.054,-0.067,-0.128,2330,0,169,2459,463,908,30,603,1,0.000,3,0,0.147,0.024,0.100,-0.040,-0.100,-0.146,-0.086,0.987,0.002,0.024,-0.008,0.000,0.000,0.000,0.000,1,2,1,3,7,255,1224,250,73,1224
stim,2560,2560,1,772533.829,0.988,0.054,-0.067,-0.128,2324,0,169,2461,461,903,29,603,1,0.000,3,0,0.115,0.024,0.040,-0.040,-0.100,-0.147,-0.088,0.987,0.000,0.024,-0.008,0.000,0.000,0.000,0.000,1,2,1,3,7,255,1224,250,78,1224
stim,2560,2560,1,772538.829,0.988,0.054,-0.067,-0.128,2343,0,165,2473,473,903,23,603,1,0.000,3,0,0.110,0.009,-0.020,-0.040,-0.100,-0.146,-0.087,0.988,-0.004,0.008,-0.008,0.000,0.000,0.000,0.000,1,2,1,3,7,255,1224,250,83,1224
stim,2560,2560,1,772543.830,0.988,0.054,-0.067,-0.128,2334,0,160,2457,464,915,22,602,1,0.000,3,0,0.162,0.008,-0.020,0.020,-0.160,-0.147,-0.089,0.987,-0.008,0.002,-0.002,0.000,0.000,0.000,0.000,1,2,1,3,7,255,1224,250,88,1224
stim,2560,2560,1,772548.829,0.988,0.054,-0.067,-0.128,2333,0,165,2467,471,907,25,605,1,0.000,3,0,0.049,0.013,-0.020,0.020,-0.040,-0.148,-0.090,0.988,-0.010,-0.008,0.000,0.000,0.000,0.000,0.000,1,2,1,3,7,255,1224,250,93,1224
stim,2560,2560,1,772553.829,0.988,0.054,-0.067,-0.128,2327,0,169,2461,467,908,27,603,1,0.000,3,0,0.049,0.013,0.040,0.020,0.020,-0.145,-0.087,0.989,-0.010,-0.008,0.004,0.000,0.000,0.000,0.000,1,2,1,3,7,255,1224,250,98,1224
stim,2574,2574,1,772558.829,0.988,0.054,-0.067,-0.128,2333,0,173,2458,501,905,24,607,1,0.000,3,0,0.092,0.021,0.040,0.020,0.080,-0.143,-0.085,0.988,0.016,0.014,0.004,0.000,0.000,0.000,0.000,1,2,1,3,7,255,1224,250,103,1224
stim,2574,2574,1,772563.829,0.988,0.054,-0.067,-0.128,2329,0,170,2459,460,905,26,605,1,0.000,3,0,0.092,0.046,0.040,0.020,0.080,-0.142,-0.084,0.987,0.028,0.036,-0.002,0.000,0.000,0.000,0.000,1,2,1,3,7,255,1224,250,108,1224
stim,2590,2590,1,772568.829,0.988,0.054,-0.067,-0.128,2324,0,168,2467,426,907,24,611,1,0.000,3,0,0.130,0.046,-0.080,0.020,-0.100,-0.144,-0.086,0.988,0.028,0.036,-0.004,0.000,0.000,0.000,0.000,1,2,1,3,7,255,1224,250,113,1224
stim,2590,2590,1,772573.829,0.988,0.054,-0.067,-0.128,2329,0,171,2457,430,904,23,611,1,0.000,3,0,0.235,0.027,-0.080,0.020,-0.220,-0.149,-0.090,0.987,0.016,0.022,-0.004,0.000,0.000,0.000,0.000,1,2,1,3,7,255,1224,250,118,1224
stim,2590,2590,1,772578.829,0.988,0.054,-0.067,-0.128,2333,0,171,2459,419,903,23,605,1,0.000,3,0,0.264,0.036,-0.140,-0.040,-0.220,-0.151,-0.094,0.987,-0.022,-0.028,-0.004,0.000,0.000,0.000,0.000,1,2,1,3,7,255,1224,250,123,1224
stim,2590,2590,0,772583.829,0.988,0.054,-0.067,-0.128,2339,0,168,2453,251,907,22,600,1,0.000,3,0,0.060,0.056,-0.020,-0.040,-0.040,-0.149,-0.093,0.988,-0.022,-0.052,0.002,0.000,0.000,0.000,0.000,1,2,0,3,7,255,1224,250,128,1224
stim,2590,2590,0,772588.829,0.988,0.054,-0.067,-0.128,2324,0,171,2457,71,909,31,604,1,0.000,3,0,0.173,0.053,0.100,0.020,0.140,-0.146,-0.085,0.989,-0.012,-0.052,0.006,0.000,0.000,0.000,0.000,1,2,0,3,7,255,1224,250,133,1224
stim,2590,2590,0,772593.829,0.988,0.054,-0.067,-0.128,2321,0,163,2432,885,926,28,604,1,0.000,3,0,0.173,0.003,0.100,0.020,0.140,-0.143,-0.089,0.987,-0.002,-0.002,0.006,0.000,0.000,0.000,0.000,1,2,0,3,7,255,1224,250,138,1224
stim,2606,2606,0,772598.829,0.988,0.054,-0.067,-0.128,2335,0,159,2464,905,909,25,606,1,0.000,3,0,0.069,0.004,0.040,-0.040,-0.040,-0.148,-0.087,0.986,-0.002,0.004,-0.008,0.000,0.000,0.000,0.000,1,2,0,3,7,255,1224,250,143,1224
stim,2606,2606,0,772603.829,0.988,0.054,-0.067,-0.128,2335,0,164,2460,731,909,23,605,1,0.000,3,0,0.035,0.016,-0.020,0.020,0.020,-0.148,-0.091,0.986,-0.016,-0.002,-0.008,0.000,0.000,0.000,0.000,1,2,0,3,7,255,1224,250,148,1224
